""trial_name"",""trial_number"",""response"",""RT"",""picture"",""question"",""option1"",""option2"",""QUD"",""optionLeft"",""optionRight"",""picture_nr"",""min_chars"",""startDate"",""startTime"",""age"",""gender"",""education"",""languages"",""comments"",""endTime"",""timeSpent"",""experiment_id"","
"desktop_distance,""1"",""yes"",""12015"",""images/Hand.png"",""It is important that you complete the experiment on your computer and not on your smartphone. <br /> <br /> For the experiment you have to be seated with a distance of 55 cm in front of your computer desktop. Because this is approximately one armlength, you can put your hand on the sketch to adjust your seating position. <br /> <br /> Are you ready?"",""yes"",""no"","""",""NA"",""NA"",""NA"",""NA"",""Thu Jun 20 2019 11:20:54 GMT+0200 (Mitteleuropäische Sommerzeit)"",""1561022454995"","""",""female"",""Graduated High School"",""German"",""I had a lot of fun"",""1561022916581"",""7.6931"",""INSERT_A_NUMBER"","
"rating_scale_like,""1"",""3"",""9882"",""images/8.jpg"",""  <br /> <br />   <br /> <br /> How much do you like the painting?"",""NA"",""NA"","""",""Not at all"",""Very much"",""8"",""NA"",""Thu Jun 20 2019 11:20:54 GMT+0200 (Mitteleuropäische Sommerzeit)"",""1561022454995"","""",""female"",""Graduated High School"",""German"",""I had a lot of fun"",""1561022916581"",""7.6931"",""INSERT_A_NUMBER"","
"rating_scale_like,""2"",""4"",""2426"",""images/12.jpg"",""  <br /> <br />   <br /> <br /> How much do you like the painting?"",""NA"",""NA"","""",""Not at all"",""Very much"",""12"",""NA"",""Thu Jun 20 2019 11:20:54 GMT+0200 (Mitteleuropäische Sommerzeit)"",""1561022454995"","""",""female"",""Graduated High School"",""German"",""I had a lot of fun"",""1561022916581"",""7.6931"",""INSERT_A_NUMBER"","
"rating_scale_like,""3"",""2"",""5714"",""images/3.jpg"",""  <br /> <br />   <br /> <br /> How much do you like the painting?"",""NA"",""NA"","""",""Not at all"",""Very much"",""3"",""NA"",""Thu Jun 20 2019 11:20:54 GMT+0200 (Mitteleuropäische Sommerzeit)"",""1561022454995"","""",""female"",""Graduated High School"",""German"",""I had a lot of fun"",""1561022916581"",""7.6931"",""INSERT_A_NUMBER"","
"rating_scale_like,""4"",""2"",""3130"",""images/22.jpg"",""  <br /> <br />   <br /> <br /> How much do you like the painting?"",""NA"",""NA"","""",""Not at all"",""Very much"",""22"",""NA"",""Thu Jun 20 2019 11:20:54 GMT+0200 (Mitteleuropäische Sommerzeit)"",""1561022454995"","""",""female"",""Graduated High School"",""German"",""I had a lot of fun"",""1561022916581"",""7.6931"",""INSERT_A_NUMBER"","
"rating_scale_like,""5"",""5"",""3582"",""images/26.jpg"",""  <br /> <br />   <br /> <br /> How much do you like the painting?"",""NA"",""NA"","""",""Not at all"",""Very much"",""26"",""NA"",""Thu Jun 20 2019 11:20:54 GMT+0200 (Mitteleuropäische Sommerzeit)"",""1561022454995"","""",""female"",""Graduated High School"",""German"",""I had a lot of fun"",""1561022916581"",""7.6931"",""INSERT_A_NUMBER"","
"rating_scale_like,""6"",""1"",""9763"",""images/13.jpg"",""  <br /> <br />   <br /> <br /> How much do you like the painting?"",""NA"",""NA"","""",""Not at all"",""Very much"",""13"",""NA"",""Thu Jun 20 2019 11:20:54 GMT+0200 (Mitteleuropäische Sommerzeit)"",""1561022454995"","""",""female"",""Graduated High School"",""German"",""I had a lot of fun"",""1561022916581"",""7.6931"",""INSERT_A_NUMBER"","
"rating_scale_like,""7"",""3"",""3145"",""images/6.jpg"",""  <br /> <br />   <br /> <br /> How much do you like the painting?"",""NA"",""NA"","""",""Not at all"",""Very much"",""6"",""NA"",""Thu Jun 20 2019 11:20:54 GMT+0200 (Mitteleuropäische Sommerzeit)"",""1561022454995"","""",""female"",""Graduated High School"",""German"",""I had a lot of fun"",""1561022916581"",""7.6931"",""INSERT_A_NUMBER"","
"rating_scale_like,""8"",""2"",""2623"",""images/15.jpg"",""  <br /> <br />   <br /> <br /> How much do you like the painting?"",""NA"",""NA"","""",""Not at all"",""Very much"",""15"",""NA"",""Thu Jun 20 2019 11:20:54 GMT+0200 (Mitteleuropäische Sommerzeit)"",""1561022454995"","""",""female"",""Graduated High School"",""German"",""I had a lot of fun"",""1561022916581"",""7.6931"",""INSERT_A_NUMBER"","
"rating_scale_like,""9"",""5"",""3621"",""images/24.jpg"",""  <br /> <br />   <br /> <br /> How much do you like the painting?"",""NA"",""NA"","""",""Not at all"",""Very much"",""24"",""NA"",""Thu Jun 20 2019 11:20:54 GMT+0200 (Mitteleuropäische Sommerzeit)"",""1561022454995"","""",""female"",""Graduated High School"",""German"",""I had a lot of fun"",""1561022916581"",""7.6931"",""INSERT_A_NUMBER"","
"rating_scale_like,""10"",""5"",""2490"",""images/25.jpg"",""  <br /> <br />   <br /> <br /> How much do you like the painting?"",""NA"",""NA"","""",""Not at all"",""Very much"",""25"",""NA"",""Thu Jun 20 2019 11:20:54 GMT+0200 (Mitteleuropäische Sommerzeit)"",""1561022454995"","""",""female"",""Graduated High School"",""German"",""I had a lot of fun"",""1561022916581"",""7.6931"",""INSERT_A_NUMBER"","
"rating_scale_like,""11"",""1"",""3679"",""images/11.jpg"",""  <br /> <br />   <br /> <br /> How much do you like the painting?"",""NA"",""NA"","""",""Not at all"",""Very much"",""11"",""NA"",""Thu Jun 20 2019 11:20:54 GMT+0200 (Mitteleuropäische Sommerzeit)"",""1561022454995"","""",""female"",""Graduated High School"",""German"",""I had a lot of fun"",""1561022916581"",""7.6931"",""INSERT_A_NUMBER"","
"rating_scale_like,""12"",""1"",""4924"",""images/9.jpg"",""  <br /> <br />   <br /> <br /> How much do you like the painting?"",""NA"",""NA"","""",""Not at all"",""Very much"",""9"",""NA"",""Thu Jun 20 2019 11:20:54 GMT+0200 (Mitteleuropäische Sommerzeit)"",""1561022454995"","""",""female"",""Graduated High School"",""German"",""I had a lot of fun"",""1561022916581"",""7.6931"",""INSERT_A_NUMBER"","
"rating_scale_like,""13"",""2"",""3101"",""images/10.jpg"",""  <br /> <br />   <br /> <br /> How much do you like the painting?"",""NA"",""NA"","""",""Not at all"",""Very much"",""10"",""NA"",""Thu Jun 20 2019 11:20:54 GMT+0200 (Mitteleuropäische Sommerzeit)"",""1561022454995"","""",""female"",""Graduated High School"",""German"",""I had a lot of fun"",""1561022916581"",""7.6931"",""INSERT_A_NUMBER"","
"rating_scale_like,""14"",""1"",""2470"",""images/4.jpg"",""  <br /> <br />   <br /> <br /> How much do you like the painting?"",""NA"",""NA"","""",""Not at all"",""Very much"",""4"",""NA"",""Thu Jun 20 2019 11:20:54 GMT+0200 (Mitteleuropäische Sommerzeit)"",""1561022454995"","""",""female"",""Graduated High School"",""German"",""I had a lot of fun"",""1561022916581"",""7.6931"",""INSERT_A_NUMBER"","
"rating_scale_like,""15"",""3"",""11742"",""images/28.jpg"",""  <br /> <br />   <br /> <br /> How much do you like the painting?"",""NA"",""NA"","""",""Not at all"",""Very much"",""28"",""NA"",""Thu Jun 20 2019 11:20:54 GMT+0200 (Mitteleuropäische Sommerzeit)"",""1561022454995"","""",""female"",""Graduated High School"",""German"",""I had a lot of fun"",""1561022916581"",""7.6931"",""INSERT_A_NUMBER"","
"rating_scale_like,""16"",""4"",""3218"",""images/30.jpg"",""  <br /> <br />   <br /> <br /> How much do you like the painting?"",""NA"",""NA"","""",""Not at all"",""Very much"",""30"",""NA"",""Thu Jun 20 2019 11:20:54 GMT+0200 (Mitteleuropäische Sommerzeit)"",""1561022454995"","""",""female"",""Graduated High School"",""German"",""I had a lot of fun"",""1561022916581"",""7.6931"",""INSERT_A_NUMBER"","
"rating_scale_like,""17"",""1"",""2999"",""images/2.jpg"",""  <br /> <br />   <br /> <br /> How much do you like the painting?"",""NA"",""NA"","""",""Not at all"",""Very much"",""2"",""NA"",""Thu Jun 20 2019 11:20:54 GMT+0200 (Mitteleuropäische Sommerzeit)"",""1561022454995"","""",""female"",""Graduated High School"",""German"",""I had a lot of fun"",""1561022916581"",""7.6931"",""INSERT_A_NUMBER"","
"rating_scale_like,""18"",""2"",""2204"",""images/17.jpg"",""  <br /> <br />   <br /> <br /> How much do you like the painting?"",""NA"",""NA"","""",""Not at all"",""Very much"",""17"",""NA"",""Thu Jun 20 2019 11:20:54 GMT+0200 (Mitteleuropäische Sommerzeit)"",""1561022454995"","""",""female"",""Graduated High School"",""German"",""I had a lot of fun"",""1561022916581"",""7.6931"",""INSERT_A_NUMBER"","
"rating_scale_like,""19"",""2"",""3653"",""images/20.jpg"",""  <br /> <br />   <br /> <br /> How much do you like the painting?"",""NA"",""NA"","""",""Not at all"",""Very much"",""20"",""NA"",""Thu Jun 20 2019 11:20:54 GMT+0200 (Mitteleuropäische Sommerzeit)"",""1561022454995"","""",""female"",""Graduated High School"",""German"",""I had a lot of fun"",""1561022916581"",""7.6931"",""INSERT_A_NUMBER"","
"rating_scale_like,""20"",""1"",""1844"",""images/19.jpg"",""  <br /> <br />   <br /> <br /> How much do you like the painting?"",""NA"",""NA"","""",""Not at all"",""Very much"",""19"",""NA"",""Thu Jun 20 2019 11:20:54 GMT+0200 (Mitteleuropäische Sommerzeit)"",""1561022454995"","""",""female"",""Graduated High School"",""German"",""I had a lot of fun"",""1561022916581"",""7.6931"",""INSERT_A_NUMBER"","
"rating_scale_like,""21"",""2"",""28670"",""images/16.jpg"",""  <br /> <br />   <br /> <br /> How much do you like the painting?"",""NA"",""NA"","""",""Not at all"",""Very much"",""16"",""NA"",""Thu Jun 20 2019 11:20:54 GMT+0200 (Mitteleuropäische Sommerzeit)"",""1561022454995"","""",""female"",""Graduated High School"",""German"",""I had a lot of fun"",""1561022916581"",""7.6931"",""INSERT_A_NUMBER"","
"rating_scale_like,""22"",""1"",""5949"",""images/14.jpg"",""  <br /> <br />   <br /> <br /> How much do you like the painting?"",""NA"",""NA"","""",""Not at all"",""Very much"",""14"",""NA"",""Thu Jun 20 2019 11:20:54 GMT+0200 (Mitteleuropäische Sommerzeit)"",""1561022454995"","""",""female"",""Graduated High School"",""German"",""I had a lot of fun"",""1561022916581"",""7.6931"",""INSERT_A_NUMBER"","
"rating_scale_like,""23"",""3"",""22656"",""images/7.jpg"",""  <br /> <br />   <br /> <br /> How much do you like the painting?"",""NA"",""NA"","""",""Not at all"",""Very much"",""7"",""NA"",""Thu Jun 20 2019 11:20:54 GMT+0200 (Mitteleuropäische Sommerzeit)"",""1561022454995"","""",""female"",""Graduated High School"",""German"",""I had a lot of fun"",""1561022916581"",""7.6931"",""INSERT_A_NUMBER"","
"rating_scale_like,""24"",""4"",""3592"",""images/21.jpg"",""  <br /> <br />   <br /> <br /> How much do you like the painting?"",""NA"",""NA"","""",""Not at all"",""Very much"",""21"",""NA"",""Thu Jun 20 2019 11:20:54 GMT+0200 (Mitteleuropäische Sommerzeit)"",""1561022454995"","""",""female"",""Graduated High School"",""German"",""I had a lot of fun"",""1561022916581"",""7.6931"",""INSERT_A_NUMBER"","
"rating_scale_like,""25"",""4"",""2404"",""images/23.jpg"",""  <br /> <br />   <br /> <br /> How much do you like the painting?"",""NA"",""NA"","""",""Not at all"",""Very much"",""23"",""NA"",""Thu Jun 20 2019 11:20:54 GMT+0200 (Mitteleuropäische Sommerzeit)"",""1561022454995"","""",""female"",""Graduated High School"",""German"",""I had a lot of fun"",""1561022916581"",""7.6931"",""INSERT_A_NUMBER"","
"rating_scale_like,""26"",""2"",""3092"",""images/18.jpg"",""  <br /> <br />   <br /> <br /> How much do you like the painting?"",""NA"",""NA"","""",""Not at all"",""Very much"",""18"",""NA"",""Thu Jun 20 2019 11:20:54 GMT+0200 (Mitteleuropäische Sommerzeit)"",""1561022454995"","""",""female"",""Graduated High School"",""German"",""I had a lot of fun"",""1561022916581"",""7.6931"",""INSERT_A_NUMBER"","
"rating_scale_like,""27"",""5"",""2526"",""images/27.jpg"",""  <br /> <br />   <br /> <br /> How much do you like the painting?"",""NA"",""NA"","""",""Not at all"",""Very much"",""27"",""NA"",""Thu Jun 20 2019 11:20:54 GMT+0200 (Mitteleuropäische Sommerzeit)"",""1561022454995"","""",""female"",""Graduated High School"",""German"",""I had a lot of fun"",""1561022916581"",""7.6931"",""INSERT_A_NUMBER"","
"rating_scale_like,""28"",""3"",""2050"",""images/29.jpg"",""  <br /> <br />   <br /> <br /> How much do you like the painting?"",""NA"",""NA"","""",""Not at all"",""Very much"",""29"",""NA"",""Thu Jun 20 2019 11:20:54 GMT+0200 (Mitteleuropäische Sommerzeit)"",""1561022454995"","""",""female"",""Graduated High School"",""German"",""I had a lot of fun"",""1561022916581"",""7.6931"",""INSERT_A_NUMBER"","
"rating_scale_like,""29"",""1"",""1813"",""images/1.jpg"",""  <br /> <br />   <br /> <br /> How much do you like the painting?"",""NA"",""NA"","""",""Not at all"",""Very much"",""1"",""NA"",""Thu Jun 20 2019 11:20:54 GMT+0200 (Mitteleuropäische Sommerzeit)"",""1561022454995"","""",""female"",""Graduated High School"",""German"",""I had a lot of fun"",""1561022916581"",""7.6931"",""INSERT_A_NUMBER"","
"rating_scale_like,""30"",""1"",""2152"",""images/5.jpg"",""  <br /> <br />   <br /> <br /> How much do you like the painting?"",""NA"",""NA"","""",""Not at all"",""Very much"",""5"",""NA"",""Thu Jun 20 2019 11:20:54 GMT+0200 (Mitteleuropäische Sommerzeit)"",""1561022454995"","""",""female"",""Graduated High School"",""German"",""I had a lot of fun"",""1561022916581"",""7.6931"",""INSERT_A_NUMBER"","
"rating_scale_object,""1"",""1"",""2801"",""images/1.jpg"",""<br /> <br />   <br /> <br /> How well can you detect objects in the painting?"",""NA"",""NA"","""",""Very hard"",""Very easy"",""1"",""NA"",""Thu Jun 20 2019 11:20:54 GMT+0200 (Mitteleuropäische Sommerzeit)"",""1561022454995"","""",""female"",""Graduated High School"",""German"",""I had a lot of fun"",""1561022916581"",""7.6931"",""INSERT_A_NUMBER"","
"rating_scale_object,""2"",""5"",""10078"",""images/26.jpg"",""<br /> <br />   <br /> <br /> How well can you detect objects in the painting?"",""NA"",""NA"","""",""Very hard"",""Very easy"",""26"",""NA"",""Thu Jun 20 2019 11:20:54 GMT+0200 (Mitteleuropäische Sommerzeit)"",""1561022454995"","""",""female"",""Graduated High School"",""German"",""I had a lot of fun"",""1561022916581"",""7.6931"",""INSERT_A_NUMBER"","
"rating_scale_object,""3"",""1"",""2052"",""images/3.jpg"",""<br /> <br />   <br /> <br /> How well can you detect objects in the painting?"",""NA"",""NA"","""",""Very hard"",""Very easy"",""3"",""NA"",""Thu Jun 20 2019 11:20:54 GMT+0200 (Mitteleuropäische Sommerzeit)"",""1561022454995"","""",""female"",""Graduated High School"",""German"",""I had a lot of fun"",""1561022916581"",""7.6931"",""INSERT_A_NUMBER"","
"rating_scale_object,""4"",""4"",""4436"",""images/21.jpg"",""<br /> <br />   <br /> <br /> How well can you detect objects in the painting?"",""NA"",""NA"","""",""Very hard"",""Very easy"",""21"",""NA"",""Thu Jun 20 2019 11:20:54 GMT+0200 (Mitteleuropäische Sommerzeit)"",""1561022454995"","""",""female"",""Graduated High School"",""German"",""I had a lot of fun"",""1561022916581"",""7.6931"",""INSERT_A_NUMBER"","
"rating_scale_object,""5"",""4"",""15685"",""images/23.jpg"",""<br /> <br />   <br /> <br /> How well can you detect objects in the painting?"",""NA"",""NA"","""",""Very hard"",""Very easy"",""23"",""NA"",""Thu Jun 20 2019 11:20:54 GMT+0200 (Mitteleuropäische Sommerzeit)"",""1561022454995"","""",""female"",""Graduated High School"",""German"",""I had a lot of fun"",""1561022916581"",""7.6931"",""INSERT_A_NUMBER"","
"rating_scale_object,""6"",""1"",""1983"",""images/2.jpg"",""<br /> <br />   <br /> <br /> How well can you detect objects in the painting?"",""NA"",""NA"","""",""Very hard"",""Very easy"",""2"",""NA"",""Thu Jun 20 2019 11:20:54 GMT+0200 (Mitteleuropäische Sommerzeit)"",""1561022454995"","""",""female"",""Graduated High School"",""German"",""I had a lot of fun"",""1561022916581"",""7.6931"",""INSERT_A_NUMBER"","
"rating_scale_object,""7"",""5"",""28422"",""images/25.jpg"",""<br /> <br />   <br /> <br /> How well can you detect objects in the painting?"",""NA"",""NA"","""",""Very hard"",""Very easy"",""25"",""NA"",""Thu Jun 20 2019 11:20:54 GMT+0200 (Mitteleuropäische Sommerzeit)"",""1561022454995"","""",""female"",""Graduated High School"",""German"",""I had a lot of fun"",""1561022916581"",""7.6931"",""INSERT_A_NUMBER"","
"rating_scale_object,""8"",""1"",""2742"",""images/14.jpg"",""<br /> <br />   <br /> <br /> How well can you detect objects in the painting?"",""NA"",""NA"","""",""Very hard"",""Very easy"",""14"",""NA"",""Thu Jun 20 2019 11:20:54 GMT+0200 (Mitteleuropäische Sommerzeit)"",""1561022454995"","""",""female"",""Graduated High School"",""German"",""I had a lot of fun"",""1561022916581"",""7.6931"",""INSERT_A_NUMBER"","
"rating_scale_object,""9"",""1"",""2803"",""images/4.jpg"",""<br /> <br />   <br /> <br /> How well can you detect objects in the painting?"",""NA"",""NA"","""",""Very hard"",""Very easy"",""4"",""NA"",""Thu Jun 20 2019 11:20:54 GMT+0200 (Mitteleuropäische Sommerzeit)"",""1561022454995"","""",""female"",""Graduated High School"",""German"",""I had a lot of fun"",""1561022916581"",""7.6931"",""INSERT_A_NUMBER"","
"rating_scale_object,""10"",""1"",""24425"",""images/20.jpg"",""<br /> <br />   <br /> <br /> How well can you detect objects in the painting?"",""NA"",""NA"","""",""Very hard"",""Very easy"",""20"",""NA"",""Thu Jun 20 2019 11:20:54 GMT+0200 (Mitteleuropäische Sommerzeit)"",""1561022454995"","""",""female"",""Graduated High School"",""German"",""I had a lot of fun"",""1561022916581"",""7.6931"",""INSERT_A_NUMBER"","
"rating_scale_object,""11"",""5"",""4121"",""images/27.jpg"",""<br /> <br />   <br /> <br /> How well can you detect objects in the painting?"",""NA"",""NA"","""",""Very hard"",""Very easy"",""27"",""NA"",""Thu Jun 20 2019 11:20:54 GMT+0200 (Mitteleuropäische Sommerzeit)"",""1561022454995"","""",""female"",""Graduated High School"",""German"",""I had a lot of fun"",""1561022916581"",""7.6931"",""INSERT_A_NUMBER"","
"rating_scale_object,""12"",""2"",""2753"",""images/7.jpg"",""<br /> <br />   <br /> <br /> How well can you detect objects in the painting?"",""NA"",""NA"","""",""Very hard"",""Very easy"",""7"",""NA"",""Thu Jun 20 2019 11:20:54 GMT+0200 (Mitteleuropäische Sommerzeit)"",""1561022454995"","""",""female"",""Graduated High School"",""German"",""I had a lot of fun"",""1561022916581"",""7.6931"",""INSERT_A_NUMBER"","
"rating_scale_object,""13"",""1"",""2289"",""images/13.jpg"",""<br /> <br />   <br /> <br /> How well can you detect objects in the painting?"",""NA"",""NA"","""",""Very hard"",""Very easy"",""13"",""NA"",""Thu Jun 20 2019 11:20:54 GMT+0200 (Mitteleuropäische Sommerzeit)"",""1561022454995"","""",""female"",""Graduated High School"",""German"",""I had a lot of fun"",""1561022916581"",""7.6931"",""INSERT_A_NUMBER"","
"rating_scale_object,""14"",""1"",""2097"",""images/15.jpg"",""<br /> <br />   <br /> <br /> How well can you detect objects in the painting?"",""NA"",""NA"","""",""Very hard"",""Very easy"",""15"",""NA"",""Thu Jun 20 2019 11:20:54 GMT+0200 (Mitteleuropäische Sommerzeit)"",""1561022454995"","""",""female"",""Graduated High School"",""German"",""I had a lot of fun"",""1561022916581"",""7.6931"",""INSERT_A_NUMBER"","
"rating_scale_object,""15"",""1"",""6803"",""images/5.jpg"",""<br /> <br />   <br /> <br /> How well can you detect objects in the painting?"",""NA"",""NA"","""",""Very hard"",""Very easy"",""5"",""NA"",""Thu Jun 20 2019 11:20:54 GMT+0200 (Mitteleuropäische Sommerzeit)"",""1561022454995"","""",""female"",""Graduated High School"",""German"",""I had a lot of fun"",""1561022916581"",""7.6931"",""INSERT_A_NUMBER"","
"rating_scale_object,""16"",""4"",""21570"",""images/29.jpg"",""<br /> <br />   <br /> <br /> How well can you detect objects in the painting?"",""NA"",""NA"","""",""Very hard"",""Very easy"",""29"",""NA"",""Thu Jun 20 2019 11:20:54 GMT+0200 (Mitteleuropäische Sommerzeit)"",""1561022454995"","""",""female"",""Graduated High School"",""German"",""I had a lot of fun"",""1561022916581"",""7.6931"",""INSERT_A_NUMBER"","
"rating_scale_object,""17"",""1"",""1810"",""images/10.jpg"",""<br /> <br />   <br /> <br /> How well can you detect objects in the painting?"",""NA"",""NA"","""",""Very hard"",""Very easy"",""10"",""NA"",""Thu Jun 20 2019 11:20:54 GMT+0200 (Mitteleuropäische Sommerzeit)"",""1561022454995"","""",""female"",""Graduated High School"",""German"",""I had a lot of fun"",""1561022916581"",""7.6931"",""INSERT_A_NUMBER"","
"rating_scale_object,""18"",""2"",""2564"",""images/8.jpg"",""<br /> <br />   <br /> <br /> How well can you detect objects in the painting?"",""NA"",""NA"","""",""Very hard"",""Very easy"",""8"",""NA"",""Thu Jun 20 2019 11:20:54 GMT+0200 (Mitteleuropäische Sommerzeit)"",""1561022454995"","""",""female"",""Graduated High School"",""German"",""I had a lot of fun"",""1561022916581"",""7.6931"",""INSERT_A_NUMBER"","
"rating_scale_object,""19"",""1"",""2670"",""images/19.jpg"",""<br /> <br />   <br /> <br /> How well can you detect objects in the painting?"",""NA"",""NA"","""",""Very hard"",""Very easy"",""19"",""NA"",""Thu Jun 20 2019 11:20:54 GMT+0200 (Mitteleuropäische Sommerzeit)"",""1561022454995"","""",""female"",""Graduated High School"",""German"",""I had a lot of fun"",""1561022916581"",""7.6931"",""INSERT_A_NUMBER"","
"rating_scale_object,""20"",""2"",""2688"",""images/16.jpg"",""<br /> <br />   <br /> <br /> How well can you detect objects in the painting?"",""NA"",""NA"","""",""Very hard"",""Very easy"",""16"",""NA"",""Thu Jun 20 2019 11:20:54 GMT+0200 (Mitteleuropäische Sommerzeit)"",""1561022454995"","""",""female"",""Graduated High School"",""German"",""I had a lot of fun"",""1561022916581"",""7.6931"",""INSERT_A_NUMBER"","
"rating_scale_object,""21"",""2"",""5195"",""images/9.jpg"",""<br /> <br />   <br /> <br /> How well can you detect objects in the painting?"",""NA"",""NA"","""",""Very hard"",""Very easy"",""9"",""NA"",""Thu Jun 20 2019 11:20:54 GMT+0200 (Mitteleuropäische Sommerzeit)"",""1561022454995"","""",""female"",""Graduated High School"",""German"",""I had a lot of fun"",""1561022916581"",""7.6931"",""INSERT_A_NUMBER"","
"rating_scale_object,""22"",""1"",""3633"",""images/11.jpg"",""<br /> <br />   <br /> <br /> How well can you detect objects in the painting?"",""NA"",""NA"","""",""Very hard"",""Very easy"",""11"",""NA"",""Thu Jun 20 2019 11:20:54 GMT+0200 (Mitteleuropäische Sommerzeit)"",""1561022454995"","""",""female"",""Graduated High School"",""German"",""I had a lot of fun"",""1561022916581"",""7.6931"",""INSERT_A_NUMBER"","
"rating_scale_object,""23"",""2"",""5510"",""images/17.jpg"",""<br /> <br />   <br /> <br /> How well can you detect objects in the painting?"",""NA"",""NA"","""",""Very hard"",""Very easy"",""17"",""NA"",""Thu Jun 20 2019 11:20:54 GMT+0200 (Mitteleuropäische Sommerzeit)"",""1561022454995"","""",""female"",""Graduated High School"",""German"",""I had a lot of fun"",""1561022916581"",""7.6931"",""INSERT_A_NUMBER"","
"rating_scale_object,""24"",""1"",""9768"",""images/18.jpg"",""<br /> <br />   <br /> <br /> How well can you detect objects in the painting?"",""NA"",""NA"","""",""Very hard"",""Very easy"",""18"",""NA"",""Thu Jun 20 2019 11:20:54 GMT+0200 (Mitteleuropäische Sommerzeit)"",""1561022454995"","""",""female"",""Graduated High School"",""German"",""I had a lot of fun"",""1561022916581"",""7.6931"",""INSERT_A_NUMBER"","
"rating_scale_object,""25"",""1"",""6526"",""images/30.jpg"",""<br /> <br />   <br /> <br /> How well can you detect objects in the painting?"",""NA"",""NA"","""",""Very hard"",""Very easy"",""30"",""NA"",""Thu Jun 20 2019 11:20:54 GMT+0200 (Mitteleuropäische Sommerzeit)"",""1561022454995"","""",""female"",""Graduated High School"",""German"",""I had a lot of fun"",""1561022916581"",""7.6931"",""INSERT_A_NUMBER"","
"rating_scale_object,""26"",""2"",""7526"",""images/22.jpg"",""<br /> <br />   <br /> <br /> How well can you detect objects in the painting?"",""NA"",""NA"","""",""Very hard"",""Very easy"",""22"",""NA"",""Thu Jun 20 2019 11:20:54 GMT+0200 (Mitteleuropäische Sommerzeit)"",""1561022454995"","""",""female"",""Graduated High School"",""German"",""I had a lot of fun"",""1561022916581"",""7.6931"",""INSERT_A_NUMBER"","
"rating_scale_object,""27"",""4"",""7290"",""images/28.jpg"",""<br /> <br />   <br /> <br /> How well can you detect objects in the painting?"",""NA"",""NA"","""",""Very hard"",""Very easy"",""28"",""NA"",""Thu Jun 20 2019 11:20:54 GMT+0200 (Mitteleuropäische Sommerzeit)"",""1561022454995"","""",""female"",""Graduated High School"",""German"",""I had a lot of fun"",""1561022916581"",""7.6931"",""INSERT_A_NUMBER"","
"rating_scale_object,""28"",""3"",""2343"",""images/6.jpg"",""<br /> <br />   <br /> <br /> How well can you detect objects in the painting?"",""NA"",""NA"","""",""Very hard"",""Very easy"",""6"",""NA"",""Thu Jun 20 2019 11:20:54 GMT+0200 (Mitteleuropäische Sommerzeit)"",""1561022454995"","""",""female"",""Graduated High School"",""German"",""I had a lot of fun"",""1561022916581"",""7.6931"",""INSERT_A_NUMBER"","
"rating_scale_object,""29"",""2"",""4850"",""images/12.jpg"",""<br /> <br />   <br /> <br /> How well can you detect objects in the painting?"",""NA"",""NA"","""",""Very hard"",""Very easy"",""12"",""NA"",""Thu Jun 20 2019 11:20:54 GMT+0200 (Mitteleuropäische Sommerzeit)"",""1561022454995"","""",""female"",""Graduated High School"",""German"",""I had a lot of fun"",""1561022916581"",""7.6931"",""INSERT_A_NUMBER"","
"rating_scale_object,""30"",""5"",""2690"",""images/24.jpg"",""<br /> <br />   <br /> <br /> How well can you detect objects in the painting?"",""NA"",""NA"","""",""Very hard"",""Very easy"",""24"",""NA"",""Thu Jun 20 2019 11:20:54 GMT+0200 (Mitteleuropäische Sommerzeit)"",""1561022454995"","""",""female"",""Graduated High School"",""German"",""I had a lot of fun"",""1561022916581"",""7.6931"",""INSERT_A_NUMBER"","
"vision_test,""1"",""PEZOLCFTD"",""12887"",""images/snellen_eye_chart.png"",""Please insert the letters from the last row you can read in the box."",""NA"",""NA"","""",""NA"",""NA"",""NA"",""1"",""Thu Jun 20 2019 11:20:54 GMT+0200 (Mitteleuropäische Sommerzeit)"",""1561022454995"","""",""female"",""Graduated High School"",""German"",""I had a lot of fun"",""1561022916581"",""7.6931"",""INSERT_A_NUMBER"","
"ishihara,""1"",""74"",""7757"",""images/ishihara.png"",""Which number do you see in the picture?"",""NA"",""NA"","""",""NA"",""NA"",""NA"",""1"",""Thu Jun 20 2019 11:20:54 GMT+0200 (Mitteleuropäische Sommerzeit)"",""1561022454995"","""",""female"",""Graduated High School"",""German"",""I had a lot of fun"",""1561022916581"",""7.6931"",""INSERT_A_NUMBER"","
"expert,""1"",""1"",""13006"",""NA"",""The paintings you just saw are artworks by Picasso, Braque and Gris. They are part of the art movement cubism. <br /> <br /> Are you an expert in cubism?"",""NA"",""NA"","""",""not at all"",""absolutely"",""NA"",""NA"",""Thu Jun 20 2019 11:20:54 GMT+0200 (Mitteleuropäische Sommerzeit)"",""1561022454995"","""",""female"",""Graduated High School"",""German"",""I had a lot of fun"",""1561022916581"",""7.6931"",""INSERT_A_NUMBER"","