submission_id,QUD,RT,age,comments,education,endTime,experiment_id,gender,languages,min_chars,option1,option2,optionLeft,optionRight,picture,picture_nr,question,response,startDate,startTime,timeSpent,trial_name,trial_number
407,,9439,21,,Graduated High School,1562235569351,70,female,German,NA,yes,absolutely yes,NA,NA,images/Hand.png,NA,"It is important that you complete the experiment on your computer and not on your smartphone. <br /> <br /> For the experiment you have to be seated with a distance of 55 cm in front of your computer desktop. Because this is approximately one armlength, you can put your hand on the sketch to adjust your seating position. <br /> <br /> Are you ready?",absolutely,Thu Jul 04 2019 12:12:32 GMT+0200 (Mitteleuropäische Sommerzeit),1562235152337,6.950233333333333,desktop_distance,1
407,,2503,21,,Graduated High School,1562235569351,70,female,German,NA,NA,NA,Not at all,Very much,images/23.jpg,23,  <br /> <br />   <br /> <br /> How much do you like the painting?,3,Thu Jul 04 2019 12:12:32 GMT+0200 (Mitteleuropäische Sommerzeit),1562235152337,6.950233333333333,rating_scale_like,1
407,,2139,21,,Graduated High School,1562235569351,70,female,German,NA,NA,NA,Not at all,Very much,images/8.jpg,8,  <br /> <br />   <br /> <br /> How much do you like the painting?,3,Thu Jul 04 2019 12:12:32 GMT+0200 (Mitteleuropäische Sommerzeit),1562235152337,6.950233333333333,rating_scale_like,2
407,,3187,21,,Graduated High School,1562235569351,70,female,German,NA,NA,NA,Not at all,Very much,images/21.jpg,21,  <br /> <br />   <br /> <br /> How much do you like the painting?,5,Thu Jul 04 2019 12:12:32 GMT+0200 (Mitteleuropäische Sommerzeit),1562235152337,6.950233333333333,rating_scale_like,3
407,,2498,21,,Graduated High School,1562235569351,70,female,German,NA,NA,NA,Not at all,Very much,images/22.jpg,22,  <br /> <br />   <br /> <br /> How much do you like the painting?,2,Thu Jul 04 2019 12:12:32 GMT+0200 (Mitteleuropäische Sommerzeit),1562235152337,6.950233333333333,rating_scale_like,4
407,,2477,21,,Graduated High School,1562235569351,70,female,German,NA,NA,NA,Not at all,Very much,images/19.jpg,19,  <br /> <br />   <br /> <br /> How much do you like the painting?,5,Thu Jul 04 2019 12:12:32 GMT+0200 (Mitteleuropäische Sommerzeit),1562235152337,6.950233333333333,rating_scale_like,5
407,,2438,21,,Graduated High School,1562235569351,70,female,German,NA,NA,NA,Not at all,Very much,images/5.jpg,5,  <br /> <br />   <br /> <br /> How much do you like the painting?,2,Thu Jul 04 2019 12:12:32 GMT+0200 (Mitteleuropäische Sommerzeit),1562235152337,6.950233333333333,rating_scale_like,6
407,,3110,21,,Graduated High School,1562235569351,70,female,German,NA,NA,NA,Not at all,Very much,images/20.jpg,20,  <br /> <br />   <br /> <br /> How much do you like the painting?,2,Thu Jul 04 2019 12:12:32 GMT+0200 (Mitteleuropäische Sommerzeit),1562235152337,6.950233333333333,rating_scale_like,7
407,,3453,21,,Graduated High School,1562235569351,70,female,German,NA,NA,NA,Not at all,Very much,images/7.jpg,7,  <br /> <br />   <br /> <br /> How much do you like the painting?,3,Thu Jul 04 2019 12:12:32 GMT+0200 (Mitteleuropäische Sommerzeit),1562235152337,6.950233333333333,rating_scale_like,8
407,,2803,21,,Graduated High School,1562235569351,70,female,German,NA,NA,NA,Not at all,Very much,images/9.jpg,9,  <br /> <br />   <br /> <br /> How much do you like the painting?,5,Thu Jul 04 2019 12:12:32 GMT+0200 (Mitteleuropäische Sommerzeit),1562235152337,6.950233333333333,rating_scale_like,9
407,,2919,21,,Graduated High School,1562235569351,70,female,German,NA,NA,NA,Not at all,Very much,images/24.jpg,24,  <br /> <br />   <br /> <br /> How much do you like the painting?,6,Thu Jul 04 2019 12:12:32 GMT+0200 (Mitteleuropäische Sommerzeit),1562235152337,6.950233333333333,rating_scale_like,10
407,,1826,21,,Graduated High School,1562235569351,70,female,German,NA,NA,NA,Not at all,Very much,images/1.jpg,1,  <br /> <br />   <br /> <br /> How much do you like the painting?,6,Thu Jul 04 2019 12:12:32 GMT+0200 (Mitteleuropäische Sommerzeit),1562235152337,6.950233333333333,rating_scale_like,11
407,,3282,21,,Graduated High School,1562235569351,70,female,German,NA,NA,NA,Not at all,Very much,images/12.jpg,12,  <br /> <br />   <br /> <br /> How much do you like the painting?,5,Thu Jul 04 2019 12:12:32 GMT+0200 (Mitteleuropäische Sommerzeit),1562235152337,6.950233333333333,rating_scale_like,12
407,,2348,21,,Graduated High School,1562235569351,70,female,German,NA,NA,NA,Not at all,Very much,images/13.jpg,13,  <br /> <br />   <br /> <br /> How much do you like the painting?,4,Thu Jul 04 2019 12:12:32 GMT+0200 (Mitteleuropäische Sommerzeit),1562235152337,6.950233333333333,rating_scale_like,13
407,,3335,21,,Graduated High School,1562235569351,70,female,German,NA,NA,NA,Not at all,Very much,images/17.jpg,17,  <br /> <br />   <br /> <br /> How much do you like the painting?,3,Thu Jul 04 2019 12:12:32 GMT+0200 (Mitteleuropäische Sommerzeit),1562235152337,6.950233333333333,rating_scale_like,14
407,,2789,21,,Graduated High School,1562235569351,70,female,German,NA,NA,NA,Not at all,Very much,images/2.jpg,2,  <br /> <br />   <br /> <br /> How much do you like the painting?,4,Thu Jul 04 2019 12:12:32 GMT+0200 (Mitteleuropäische Sommerzeit),1562235152337,6.950233333333333,rating_scale_like,15
407,,2488,21,,Graduated High School,1562235569351,70,female,German,NA,NA,NA,Not at all,Very much,images/26.jpg,26,  <br /> <br />   <br /> <br /> How much do you like the painting?,6,Thu Jul 04 2019 12:12:32 GMT+0200 (Mitteleuropäische Sommerzeit),1562235152337,6.950233333333333,rating_scale_like,16
407,,2355,21,,Graduated High School,1562235569351,70,female,German,NA,NA,NA,Not at all,Very much,images/28.jpg,28,  <br /> <br />   <br /> <br /> How much do you like the painting?,5,Thu Jul 04 2019 12:12:32 GMT+0200 (Mitteleuropäische Sommerzeit),1562235152337,6.950233333333333,rating_scale_like,17
407,,2883,21,,Graduated High School,1562235569351,70,female,German,NA,NA,NA,Not at all,Very much,images/27.jpg,27,  <br /> <br />   <br /> <br /> How much do you like the painting?,6,Thu Jul 04 2019 12:12:32 GMT+0200 (Mitteleuropäische Sommerzeit),1562235152337,6.950233333333333,rating_scale_like,18
407,,2985,21,,Graduated High School,1562235569351,70,female,German,NA,NA,NA,Not at all,Very much,images/16.jpg,16,  <br /> <br />   <br /> <br /> How much do you like the painting?,3,Thu Jul 04 2019 12:12:32 GMT+0200 (Mitteleuropäische Sommerzeit),1562235152337,6.950233333333333,rating_scale_like,19
407,,3599,21,,Graduated High School,1562235569351,70,female,German,NA,NA,NA,Not at all,Very much,images/10.jpg,10,  <br /> <br />   <br /> <br /> How much do you like the painting?,2,Thu Jul 04 2019 12:12:32 GMT+0200 (Mitteleuropäische Sommerzeit),1562235152337,6.950233333333333,rating_scale_like,20
407,,2075,21,,Graduated High School,1562235569351,70,female,German,NA,NA,NA,Not at all,Very much,images/4.jpg,4,  <br /> <br />   <br /> <br /> How much do you like the painting?,2,Thu Jul 04 2019 12:12:32 GMT+0200 (Mitteleuropäische Sommerzeit),1562235152337,6.950233333333333,rating_scale_like,21
407,,1992,21,,Graduated High School,1562235569351,70,female,German,NA,NA,NA,Not at all,Very much,images/18.jpg,18,  <br /> <br />   <br /> <br /> How much do you like the painting?,2,Thu Jul 04 2019 12:12:32 GMT+0200 (Mitteleuropäische Sommerzeit),1562235152337,6.950233333333333,rating_scale_like,22
407,,2782,21,,Graduated High School,1562235569351,70,female,German,NA,NA,NA,Not at all,Very much,images/29.jpg,29,  <br /> <br />   <br /> <br /> How much do you like the painting?,5,Thu Jul 04 2019 12:12:32 GMT+0200 (Mitteleuropäische Sommerzeit),1562235152337,6.950233333333333,rating_scale_like,23
407,,3767,21,,Graduated High School,1562235569351,70,female,German,NA,NA,NA,Not at all,Very much,images/15.jpg,15,  <br /> <br />   <br /> <br /> How much do you like the painting?,3,Thu Jul 04 2019 12:12:32 GMT+0200 (Mitteleuropäische Sommerzeit),1562235152337,6.950233333333333,rating_scale_like,24
407,,2938,21,,Graduated High School,1562235569351,70,female,German,NA,NA,NA,Not at all,Very much,images/3.jpg,3,  <br /> <br />   <br /> <br /> How much do you like the painting?,2,Thu Jul 04 2019 12:12:32 GMT+0200 (Mitteleuropäische Sommerzeit),1562235152337,6.950233333333333,rating_scale_like,25
407,,3550,21,,Graduated High School,1562235569351,70,female,German,NA,NA,NA,Not at all,Very much,images/11.jpg,11,  <br /> <br />   <br /> <br /> How much do you like the painting?,3,Thu Jul 04 2019 12:12:32 GMT+0200 (Mitteleuropäische Sommerzeit),1562235152337,6.950233333333333,rating_scale_like,26
407,,2489,21,,Graduated High School,1562235569351,70,female,German,NA,NA,NA,Not at all,Very much,images/6.jpg,6,  <br /> <br />   <br /> <br /> How much do you like the painting?,4,Thu Jul 04 2019 12:12:32 GMT+0200 (Mitteleuropäische Sommerzeit),1562235152337,6.950233333333333,rating_scale_like,27
407,,3744,21,,Graduated High School,1562235569351,70,female,German,NA,NA,NA,Not at all,Very much,images/14.jpg,14,  <br /> <br />   <br /> <br /> How much do you like the painting?,1,Thu Jul 04 2019 12:12:32 GMT+0200 (Mitteleuropäische Sommerzeit),1562235152337,6.950233333333333,rating_scale_like,28
407,,4063,21,,Graduated High School,1562235569351,70,female,German,NA,NA,NA,Not at all,Very much,images/25.jpg,25,  <br /> <br />   <br /> <br /> How much do you like the painting?,6,Thu Jul 04 2019 12:12:32 GMT+0200 (Mitteleuropäische Sommerzeit),1562235152337,6.950233333333333,rating_scale_like,29
407,,3796,21,,Graduated High School,1562235569351,70,female,German,NA,NA,NA,Not at all,Very much,images/30.jpg,30,  <br /> <br />   <br /> <br /> How much do you like the painting?,3,Thu Jul 04 2019 12:12:32 GMT+0200 (Mitteleuropäische Sommerzeit),1562235152337,6.950233333333333,rating_scale_like,30
407,,2306,21,,Graduated High School,1562235569351,70,female,German,NA,NA,NA,Very hard,Very easy,images/27.jpg,27,<br /> <br />   <br /> <br /> How well can you detect objects in the painting?,6,Thu Jul 04 2019 12:12:32 GMT+0200 (Mitteleuropäische Sommerzeit),1562235152337,6.950233333333333,rating_scale_object,1
407,,3217,21,,Graduated High School,1562235569351,70,female,German,NA,NA,NA,Very hard,Very easy,images/14.jpg,14,<br /> <br />   <br /> <br /> How well can you detect objects in the painting?,1,Thu Jul 04 2019 12:12:32 GMT+0200 (Mitteleuropäische Sommerzeit),1562235152337,6.950233333333333,rating_scale_object,2
407,,2531,21,,Graduated High School,1562235569351,70,female,German,NA,NA,NA,Very hard,Very easy,images/17.jpg,17,<br /> <br />   <br /> <br /> How well can you detect objects in the painting?,1,Thu Jul 04 2019 12:12:32 GMT+0200 (Mitteleuropäische Sommerzeit),1562235152337,6.950233333333333,rating_scale_object,3
407,,8146,21,,Graduated High School,1562235569351,70,female,German,NA,NA,NA,Very hard,Very easy,images/6.jpg,6,<br /> <br />   <br /> <br /> How well can you detect objects in the painting?,1,Thu Jul 04 2019 12:12:32 GMT+0200 (Mitteleuropäische Sommerzeit),1562235152337,6.950233333333333,rating_scale_object,4
407,,3563,21,,Graduated High School,1562235569351,70,female,German,NA,NA,NA,Very hard,Very easy,images/21.jpg,21,<br /> <br />   <br /> <br /> How well can you detect objects in the painting?,5,Thu Jul 04 2019 12:12:32 GMT+0200 (Mitteleuropäische Sommerzeit),1562235152337,6.950233333333333,rating_scale_object,5
407,,4704,21,,Graduated High School,1562235569351,70,female,German,NA,NA,NA,Very hard,Very easy,images/28.jpg,28,<br /> <br />   <br /> <br /> How well can you detect objects in the painting?,5,Thu Jul 04 2019 12:12:32 GMT+0200 (Mitteleuropäische Sommerzeit),1562235152337,6.950233333333333,rating_scale_object,6
407,,3787,21,,Graduated High School,1562235569351,70,female,German,NA,NA,NA,Very hard,Very easy,images/11.jpg,11,<br /> <br />   <br /> <br /> How well can you detect objects in the painting?,1,Thu Jul 04 2019 12:12:32 GMT+0200 (Mitteleuropäische Sommerzeit),1562235152337,6.950233333333333,rating_scale_object,7
407,,4674,21,,Graduated High School,1562235569351,70,female,German,NA,NA,NA,Very hard,Very easy,images/5.jpg,5,<br /> <br />   <br /> <br /> How well can you detect objects in the painting?,1,Thu Jul 04 2019 12:12:32 GMT+0200 (Mitteleuropäische Sommerzeit),1562235152337,6.950233333333333,rating_scale_object,8
407,,4624,21,,Graduated High School,1562235569351,70,female,German,NA,NA,NA,Very hard,Very easy,images/2.jpg,2,<br /> <br />   <br /> <br /> How well can you detect objects in the painting?,1,Thu Jul 04 2019 12:12:32 GMT+0200 (Mitteleuropäische Sommerzeit),1562235152337,6.950233333333333,rating_scale_object,9
407,,3286,21,,Graduated High School,1562235569351,70,female,German,NA,NA,NA,Very hard,Very easy,images/24.jpg,24,<br /> <br />   <br /> <br /> How well can you detect objects in the painting?,7,Thu Jul 04 2019 12:12:32 GMT+0200 (Mitteleuropäische Sommerzeit),1562235152337,6.950233333333333,rating_scale_object,10
407,,3912,21,,Graduated High School,1562235569351,70,female,German,NA,NA,NA,Very hard,Very easy,images/15.jpg,15,<br /> <br />   <br /> <br /> How well can you detect objects in the painting?,4,Thu Jul 04 2019 12:12:32 GMT+0200 (Mitteleuropäische Sommerzeit),1562235152337,6.950233333333333,rating_scale_object,11
407,,4541,21,,Graduated High School,1562235569351,70,female,German,NA,NA,NA,Very hard,Very easy,images/20.jpg,20,<br /> <br />   <br /> <br /> How well can you detect objects in the painting?,1,Thu Jul 04 2019 12:12:32 GMT+0200 (Mitteleuropäische Sommerzeit),1562235152337,6.950233333333333,rating_scale_object,12
407,,4107,21,,Graduated High School,1562235569351,70,female,German,NA,NA,NA,Very hard,Very easy,images/29.jpg,29,<br /> <br />   <br /> <br /> How well can you detect objects in the painting?,6,Thu Jul 04 2019 12:12:32 GMT+0200 (Mitteleuropäische Sommerzeit),1562235152337,6.950233333333333,rating_scale_object,13
407,,3235,21,,Graduated High School,1562235569351,70,female,German,NA,NA,NA,Very hard,Very easy,images/13.jpg,13,<br /> <br />   <br /> <br /> How well can you detect objects in the painting?,1,Thu Jul 04 2019 12:12:32 GMT+0200 (Mitteleuropäische Sommerzeit),1562235152337,6.950233333333333,rating_scale_object,14
407,,3905,21,,Graduated High School,1562235569351,70,female,German,NA,NA,NA,Very hard,Very easy,images/22.jpg,22,<br /> <br />   <br /> <br /> How well can you detect objects in the painting?,2,Thu Jul 04 2019 12:12:32 GMT+0200 (Mitteleuropäische Sommerzeit),1562235152337,6.950233333333333,rating_scale_object,15
407,,5950,21,,Graduated High School,1562235569351,70,female,German,NA,NA,NA,Very hard,Very easy,images/30.jpg,30,<br /> <br />   <br /> <br /> How well can you detect objects in the painting?,2,Thu Jul 04 2019 12:12:32 GMT+0200 (Mitteleuropäische Sommerzeit),1562235152337,6.950233333333333,rating_scale_object,16
407,,10743,21,,Graduated High School,1562235569351,70,female,German,NA,NA,NA,Very hard,Very easy,images/16.jpg,16,<br /> <br />   <br /> <br /> How well can you detect objects in the painting?,2,Thu Jul 04 2019 12:12:32 GMT+0200 (Mitteleuropäische Sommerzeit),1562235152337,6.950233333333333,rating_scale_object,17
407,,6944,21,,Graduated High School,1562235569351,70,female,German,NA,NA,NA,Very hard,Very easy,images/19.jpg,19,<br /> <br />   <br /> <br /> How well can you detect objects in the painting?,1,Thu Jul 04 2019 12:12:32 GMT+0200 (Mitteleuropäische Sommerzeit),1562235152337,6.950233333333333,rating_scale_object,18
407,,11399,21,,Graduated High School,1562235569351,70,female,German,NA,NA,NA,Very hard,Very easy,images/23.jpg,23,<br /> <br />   <br /> <br /> How well can you detect objects in the painting?,2,Thu Jul 04 2019 12:12:32 GMT+0200 (Mitteleuropäische Sommerzeit),1562235152337,6.950233333333333,rating_scale_object,19
407,,28446,21,,Graduated High School,1562235569351,70,female,German,NA,NA,NA,Very hard,Very easy,images/10.jpg,10,<br /> <br />   <br /> <br /> How well can you detect objects in the painting?,1,Thu Jul 04 2019 12:12:32 GMT+0200 (Mitteleuropäische Sommerzeit),1562235152337,6.950233333333333,rating_scale_object,20
407,,12980,21,,Graduated High School,1562235569351,70,female,German,NA,NA,NA,Very hard,Very easy,images/4.jpg,4,<br /> <br />   <br /> <br /> How well can you detect objects in the painting?,1,Thu Jul 04 2019 12:12:32 GMT+0200 (Mitteleuropäische Sommerzeit),1562235152337,6.950233333333333,rating_scale_object,21
407,,10472,21,,Graduated High School,1562235569351,70,female,German,NA,NA,NA,Very hard,Very easy,images/18.jpg,18,<br /> <br />   <br /> <br /> How well can you detect objects in the painting?,1,Thu Jul 04 2019 12:12:32 GMT+0200 (Mitteleuropäische Sommerzeit),1562235152337,6.950233333333333,rating_scale_object,22
407,,7486,21,,Graduated High School,1562235569351,70,female,German,NA,NA,NA,Very hard,Very easy,images/8.jpg,8,<br /> <br />   <br /> <br /> How well can you detect objects in the painting?,1,Thu Jul 04 2019 12:12:32 GMT+0200 (Mitteleuropäische Sommerzeit),1562235152337,6.950233333333333,rating_scale_object,23
407,,18344,21,,Graduated High School,1562235569351,70,female,German,NA,NA,NA,Very hard,Very easy,images/12.jpg,12,<br /> <br />   <br /> <br /> How well can you detect objects in the painting?,4,Thu Jul 04 2019 12:12:32 GMT+0200 (Mitteleuropäische Sommerzeit),1562235152337,6.950233333333333,rating_scale_object,24
407,,9029,21,,Graduated High School,1562235569351,70,female,German,NA,NA,NA,Very hard,Very easy,images/9.jpg,9,<br /> <br />   <br /> <br /> How well can you detect objects in the painting?,3,Thu Jul 04 2019 12:12:32 GMT+0200 (Mitteleuropäische Sommerzeit),1562235152337,6.950233333333333,rating_scale_object,25
407,,2883,21,,Graduated High School,1562235569351,70,female,German,NA,NA,NA,Very hard,Very easy,images/25.jpg,25,<br /> <br />   <br /> <br /> How well can you detect objects in the painting?,7,Thu Jul 04 2019 12:12:32 GMT+0200 (Mitteleuropäische Sommerzeit),1562235152337,6.950233333333333,rating_scale_object,26
407,,4854,21,,Graduated High School,1562235569351,70,female,German,NA,NA,NA,Very hard,Very easy,images/1.jpg,1,<br /> <br />   <br /> <br /> How well can you detect objects in the painting?,3,Thu Jul 04 2019 12:12:32 GMT+0200 (Mitteleuropäische Sommerzeit),1562235152337,6.950233333333333,rating_scale_object,27
407,,4451,21,,Graduated High School,1562235569351,70,female,German,NA,NA,NA,Very hard,Very easy,images/26.jpg,26,<br /> <br />   <br /> <br /> How well can you detect objects in the painting?,7,Thu Jul 04 2019 12:12:32 GMT+0200 (Mitteleuropäische Sommerzeit),1562235152337,6.950233333333333,rating_scale_object,28
407,,6827,21,,Graduated High School,1562235569351,70,female,German,NA,NA,NA,Very hard,Very easy,images/3.jpg,3,<br /> <br />   <br /> <br /> How well can you detect objects in the painting?,4,Thu Jul 04 2019 12:12:32 GMT+0200 (Mitteleuropäische Sommerzeit),1562235152337,6.950233333333333,rating_scale_object,29
407,,9831,21,,Graduated High School,1562235569351,70,female,German,NA,NA,NA,Very hard,Very easy,images/7.jpg,7,<br /> <br />   <br /> <br /> How well can you detect objects in the painting?,3,Thu Jul 04 2019 12:12:32 GMT+0200 (Mitteleuropäische Sommerzeit),1562235152337,6.950233333333333,rating_scale_object,30
407,,13031,21,,Graduated High School,1562235569351,70,female,German,1,NA,NA,NA,NA,images/Visiontest.jpg,NA,<br /> <br /> <br /> <br /> Please fill in the box with the smallest letter combination that you can read.,JSE,Thu Jul 04 2019 12:12:32 GMT+0200 (Mitteleuropäische Sommerzeit),1562235152337,6.950233333333333,vision_test,1
407,,16384,21,,Graduated High School,1562235569351,70,female,German,1,NA,NA,NA,NA,images/Visiontest_2.jpg,NA,<br /> <br /> <br /> <br /> Please fill in the box with the letter combination that is accentuated.,JSE,Thu Jul 04 2019 12:12:32 GMT+0200 (Mitteleuropäische Sommerzeit),1562235152337,6.950233333333333,vision_test_2,1
407,,6734,21,,Graduated High School,1562235569351,70,female,German,1,NA,NA,NA,NA,images/ishihara.png,NA,Which number do you see in the picture?,74,Thu Jul 04 2019 12:12:32 GMT+0200 (Mitteleuropäische Sommerzeit),1562235152337,6.950233333333333,ishihara,1
407,,13230,21,,Graduated High School,1562235569351,70,female,German,NA,NA,NA,not at all,absolutely,NA,NA,"The paintings you just saw are artworks by Picasso, Braque and Gris. They are part of the art style cubism. <br /> <br /> Are you an expert in cubism?",2,Thu Jul 04 2019 12:12:32 GMT+0200 (Mitteleuropäische Sommerzeit),1562235152337,6.950233333333333,expert,1
401,,13850,22,,Graduated High School,1562226317258,70,female,German,NA,yes,absolutely yes,NA,NA,images/Hand.png,NA,"It is important that you complete the experiment on your computer and not on your smartphone. <br /> <br /> For the experiment you have to be seated with a distance of 55 cm in front of your computer desktop. Because this is approximately one armlength, you can put your hand on the sketch to adjust your seating position. <br /> <br /> Are you ready?",absolutely,Thu Jul 04 2019 09:39:18 GMT+0200 (CEST),1562225958637,5.977016666666667,desktop_distance,1
401,,5879,22,,Graduated High School,1562226317258,70,female,German,NA,NA,NA,Not at all,Very much,images/5.jpg,5,  <br /> <br />   <br /> <br /> How much do you like the painting?,2,Thu Jul 04 2019 09:39:18 GMT+0200 (CEST),1562225958637,5.977016666666667,rating_scale_like,1
401,,2995,22,,Graduated High School,1562226317258,70,female,German,NA,NA,NA,Not at all,Very much,images/6.jpg,6,  <br /> <br />   <br /> <br /> How much do you like the painting?,3,Thu Jul 04 2019 09:39:18 GMT+0200 (CEST),1562225958637,5.977016666666667,rating_scale_like,2
401,,2739,22,,Graduated High School,1562226317258,70,female,German,NA,NA,NA,Not at all,Very much,images/12.jpg,12,  <br /> <br />   <br /> <br /> How much do you like the painting?,5,Thu Jul 04 2019 09:39:18 GMT+0200 (CEST),1562225958637,5.977016666666667,rating_scale_like,3
401,,4709,22,,Graduated High School,1562226317258,70,female,German,NA,NA,NA,Not at all,Very much,images/13.jpg,13,  <br /> <br />   <br /> <br /> How much do you like the painting?,4,Thu Jul 04 2019 09:39:18 GMT+0200 (CEST),1562225958637,5.977016666666667,rating_scale_like,4
401,,1936,22,,Graduated High School,1562226317258,70,female,German,NA,NA,NA,Not at all,Very much,images/20.jpg,20,  <br /> <br />   <br /> <br /> How much do you like the painting?,3,Thu Jul 04 2019 09:39:18 GMT+0200 (CEST),1562225958637,5.977016666666667,rating_scale_like,5
401,,6606,22,,Graduated High School,1562226317258,70,female,German,NA,NA,NA,Not at all,Very much,images/24.jpg,24,  <br /> <br />   <br /> <br /> How much do you like the painting?,3,Thu Jul 04 2019 09:39:18 GMT+0200 (CEST),1562225958637,5.977016666666667,rating_scale_like,6
401,,2822,22,,Graduated High School,1562226317258,70,female,German,NA,NA,NA,Not at all,Very much,images/8.jpg,8,  <br /> <br />   <br /> <br /> How much do you like the painting?,2,Thu Jul 04 2019 09:39:18 GMT+0200 (CEST),1562225958637,5.977016666666667,rating_scale_like,7
401,,2023,22,,Graduated High School,1562226317258,70,female,German,NA,NA,NA,Not at all,Very much,images/30.jpg,30,  <br /> <br />   <br /> <br /> How much do you like the painting?,4,Thu Jul 04 2019 09:39:18 GMT+0200 (CEST),1562225958637,5.977016666666667,rating_scale_like,8
401,,1627,22,,Graduated High School,1562226317258,70,female,German,NA,NA,NA,Not at all,Very much,images/23.jpg,23,  <br /> <br />   <br /> <br /> How much do you like the painting?,5,Thu Jul 04 2019 09:39:18 GMT+0200 (CEST),1562225958637,5.977016666666667,rating_scale_like,9
401,,1857,22,,Graduated High School,1562226317258,70,female,German,NA,NA,NA,Not at all,Very much,images/4.jpg,4,  <br /> <br />   <br /> <br /> How much do you like the painting?,5,Thu Jul 04 2019 09:39:18 GMT+0200 (CEST),1562225958637,5.977016666666667,rating_scale_like,10
401,,3580,22,,Graduated High School,1562226317258,70,female,German,NA,NA,NA,Not at all,Very much,images/21.jpg,21,  <br /> <br />   <br /> <br /> How much do you like the painting?,4,Thu Jul 04 2019 09:39:18 GMT+0200 (CEST),1562225958637,5.977016666666667,rating_scale_like,11
401,,2318,22,,Graduated High School,1562226317258,70,female,German,NA,NA,NA,Not at all,Very much,images/9.jpg,9,  <br /> <br />   <br /> <br /> How much do you like the painting?,3,Thu Jul 04 2019 09:39:18 GMT+0200 (CEST),1562225958637,5.977016666666667,rating_scale_like,12
401,,2472,22,,Graduated High School,1562226317258,70,female,German,NA,NA,NA,Not at all,Very much,images/15.jpg,15,  <br /> <br />   <br /> <br /> How much do you like the painting?,3,Thu Jul 04 2019 09:39:18 GMT+0200 (CEST),1562225958637,5.977016666666667,rating_scale_like,13
401,,1884,22,,Graduated High School,1562226317258,70,female,German,NA,NA,NA,Not at all,Very much,images/17.jpg,17,  <br /> <br />   <br /> <br /> How much do you like the painting?,3,Thu Jul 04 2019 09:39:18 GMT+0200 (CEST),1562225958637,5.977016666666667,rating_scale_like,14
401,,1909,22,,Graduated High School,1562226317258,70,female,German,NA,NA,NA,Not at all,Very much,images/25.jpg,25,  <br /> <br />   <br /> <br /> How much do you like the painting?,4,Thu Jul 04 2019 09:39:18 GMT+0200 (CEST),1562225958637,5.977016666666667,rating_scale_like,15
401,,1873,22,,Graduated High School,1562226317258,70,female,German,NA,NA,NA,Not at all,Very much,images/11.jpg,11,  <br /> <br />   <br /> <br /> How much do you like the painting?,4,Thu Jul 04 2019 09:39:18 GMT+0200 (CEST),1562225958637,5.977016666666667,rating_scale_like,16
401,,1700,22,,Graduated High School,1562226317258,70,female,German,NA,NA,NA,Not at all,Very much,images/26.jpg,26,  <br /> <br />   <br /> <br /> How much do you like the painting?,5,Thu Jul 04 2019 09:39:18 GMT+0200 (CEST),1562225958637,5.977016666666667,rating_scale_like,17
401,,1694,22,,Graduated High School,1562226317258,70,female,German,NA,NA,NA,Not at all,Very much,images/14.jpg,14,  <br /> <br />   <br /> <br /> How much do you like the painting?,3,Thu Jul 04 2019 09:39:18 GMT+0200 (CEST),1562225958637,5.977016666666667,rating_scale_like,18
401,,3742,22,,Graduated High School,1562226317258,70,female,German,NA,NA,NA,Not at all,Very much,images/10.jpg,10,  <br /> <br />   <br /> <br /> How much do you like the painting?,4,Thu Jul 04 2019 09:39:18 GMT+0200 (CEST),1562225958637,5.977016666666667,rating_scale_like,19
401,,1935,22,,Graduated High School,1562226317258,70,female,German,NA,NA,NA,Not at all,Very much,images/2.jpg,2,  <br /> <br />   <br /> <br /> How much do you like the painting?,4,Thu Jul 04 2019 09:39:18 GMT+0200 (CEST),1562225958637,5.977016666666667,rating_scale_like,20
401,,2111,22,,Graduated High School,1562226317258,70,female,German,NA,NA,NA,Not at all,Very much,images/22.jpg,22,  <br /> <br />   <br /> <br /> How much do you like the painting?,2,Thu Jul 04 2019 09:39:18 GMT+0200 (CEST),1562225958637,5.977016666666667,rating_scale_like,21
401,,2101,22,,Graduated High School,1562226317258,70,female,German,NA,NA,NA,Not at all,Very much,images/7.jpg,7,  <br /> <br />   <br /> <br /> How much do you like the painting?,3,Thu Jul 04 2019 09:39:18 GMT+0200 (CEST),1562225958637,5.977016666666667,rating_scale_like,22
401,,1584,22,,Graduated High School,1562226317258,70,female,German,NA,NA,NA,Not at all,Very much,images/3.jpg,3,  <br /> <br />   <br /> <br /> How much do you like the painting?,3,Thu Jul 04 2019 09:39:18 GMT+0200 (CEST),1562225958637,5.977016666666667,rating_scale_like,23
401,,1041,22,,Graduated High School,1562226317258,70,female,German,NA,NA,NA,Not at all,Very much,images/29.jpg,29,  <br /> <br />   <br /> <br /> How much do you like the painting?,3,Thu Jul 04 2019 09:39:18 GMT+0200 (CEST),1562225958637,5.977016666666667,rating_scale_like,24
401,,1349,22,,Graduated High School,1562226317258,70,female,German,NA,NA,NA,Not at all,Very much,images/16.jpg,16,  <br /> <br />   <br /> <br /> How much do you like the painting?,4,Thu Jul 04 2019 09:39:18 GMT+0200 (CEST),1562225958637,5.977016666666667,rating_scale_like,25
401,,1623,22,,Graduated High School,1562226317258,70,female,German,NA,NA,NA,Not at all,Very much,images/1.jpg,1,  <br /> <br />   <br /> <br /> How much do you like the painting?,5,Thu Jul 04 2019 09:39:18 GMT+0200 (CEST),1562225958637,5.977016666666667,rating_scale_like,26
401,,3014,22,,Graduated High School,1562226317258,70,female,German,NA,NA,NA,Not at all,Very much,images/28.jpg,28,  <br /> <br />   <br /> <br /> How much do you like the painting?,4,Thu Jul 04 2019 09:39:18 GMT+0200 (CEST),1562225958637,5.977016666666667,rating_scale_like,27
401,,1368,22,,Graduated High School,1562226317258,70,female,German,NA,NA,NA,Not at all,Very much,images/27.jpg,27,  <br /> <br />   <br /> <br /> How much do you like the painting?,5,Thu Jul 04 2019 09:39:18 GMT+0200 (CEST),1562225958637,5.977016666666667,rating_scale_like,28
401,,2951,22,,Graduated High School,1562226317258,70,female,German,NA,NA,NA,Not at all,Very much,images/18.jpg,18,  <br /> <br />   <br /> <br /> How much do you like the painting?,3,Thu Jul 04 2019 09:39:18 GMT+0200 (CEST),1562225958637,5.977016666666667,rating_scale_like,29
401,,1544,22,,Graduated High School,1562226317258,70,female,German,NA,NA,NA,Not at all,Very much,images/19.jpg,19,  <br /> <br />   <br /> <br /> How much do you like the painting?,3,Thu Jul 04 2019 09:39:18 GMT+0200 (CEST),1562225958637,5.977016666666667,rating_scale_like,30
401,,12807,22,,Graduated High School,1562226317258,70,female,German,NA,NA,NA,Very hard,Very easy,images/14.jpg,14,<br /> <br />   <br /> <br /> How well can you detect objects in the painting?,2,Thu Jul 04 2019 09:39:18 GMT+0200 (CEST),1562225958637,5.977016666666667,rating_scale_object,1
401,,5704,22,,Graduated High School,1562226317258,70,female,German,NA,NA,NA,Very hard,Very easy,images/5.jpg,5,<br /> <br />   <br /> <br /> How well can you detect objects in the painting?,2,Thu Jul 04 2019 09:39:18 GMT+0200 (CEST),1562225958637,5.977016666666667,rating_scale_object,2
401,,4751,22,,Graduated High School,1562226317258,70,female,German,NA,NA,NA,Very hard,Very easy,images/2.jpg,2,<br /> <br />   <br /> <br /> How well can you detect objects in the painting?,2,Thu Jul 04 2019 09:39:18 GMT+0200 (CEST),1562225958637,5.977016666666667,rating_scale_object,3
401,,2206,22,,Graduated High School,1562226317258,70,female,German,NA,NA,NA,Very hard,Very easy,images/4.jpg,4,<br /> <br />   <br /> <br /> How well can you detect objects in the painting?,1,Thu Jul 04 2019 09:39:18 GMT+0200 (CEST),1562225958637,5.977016666666667,rating_scale_object,4
401,,4260,22,,Graduated High School,1562226317258,70,female,German,NA,NA,NA,Very hard,Very easy,images/12.jpg,12,<br /> <br />   <br /> <br /> How well can you detect objects in the painting?,3,Thu Jul 04 2019 09:39:18 GMT+0200 (CEST),1562225958637,5.977016666666667,rating_scale_object,5
401,,2523,22,,Graduated High School,1562226317258,70,female,German,NA,NA,NA,Very hard,Very easy,images/24.jpg,24,<br /> <br />   <br /> <br /> How well can you detect objects in the painting?,7,Thu Jul 04 2019 09:39:18 GMT+0200 (CEST),1562225958637,5.977016666666667,rating_scale_object,6
401,,3549,22,,Graduated High School,1562226317258,70,female,German,NA,NA,NA,Very hard,Very easy,images/10.jpg,10,<br /> <br />   <br /> <br /> How well can you detect objects in the painting?,2,Thu Jul 04 2019 09:39:18 GMT+0200 (CEST),1562225958637,5.977016666666667,rating_scale_object,7
401,,7692,22,,Graduated High School,1562226317258,70,female,German,NA,NA,NA,Very hard,Very easy,images/30.jpg,30,<br /> <br />   <br /> <br /> How well can you detect objects in the painting?,4,Thu Jul 04 2019 09:39:18 GMT+0200 (CEST),1562225958637,5.977016666666667,rating_scale_object,8
401,,6894,22,,Graduated High School,1562226317258,70,female,German,NA,NA,NA,Very hard,Very easy,images/25.jpg,25,<br /> <br />   <br /> <br /> How well can you detect objects in the painting?,6,Thu Jul 04 2019 09:39:18 GMT+0200 (CEST),1562225958637,5.977016666666667,rating_scale_object,9
401,,5649,22,,Graduated High School,1562226317258,70,female,German,NA,NA,NA,Very hard,Very easy,images/29.jpg,29,<br /> <br />   <br /> <br /> How well can you detect objects in the painting?,6,Thu Jul 04 2019 09:39:18 GMT+0200 (CEST),1562225958637,5.977016666666667,rating_scale_object,10
401,,4459,22,,Graduated High School,1562226317258,70,female,German,NA,NA,NA,Very hard,Very easy,images/11.jpg,11,<br /> <br />   <br /> <br /> How well can you detect objects in the painting?,1,Thu Jul 04 2019 09:39:18 GMT+0200 (CEST),1562225958637,5.977016666666667,rating_scale_object,11
401,,3088,22,,Graduated High School,1562226317258,70,female,German,NA,NA,NA,Very hard,Very easy,images/22.jpg,22,<br /> <br />   <br /> <br /> How well can you detect objects in the painting?,4,Thu Jul 04 2019 09:39:18 GMT+0200 (CEST),1562225958637,5.977016666666667,rating_scale_object,12
401,,3082,22,,Graduated High School,1562226317258,70,female,German,NA,NA,NA,Very hard,Very easy,images/18.jpg,18,<br /> <br />   <br /> <br /> How well can you detect objects in the painting?,2,Thu Jul 04 2019 09:39:18 GMT+0200 (CEST),1562225958637,5.977016666666667,rating_scale_object,13
401,,3558,22,,Graduated High School,1562226317258,70,female,German,NA,NA,NA,Very hard,Very easy,images/23.jpg,23,<br /> <br />   <br /> <br /> How well can you detect objects in the painting?,5,Thu Jul 04 2019 09:39:18 GMT+0200 (CEST),1562225958637,5.977016666666667,rating_scale_object,14
401,,2745,22,,Graduated High School,1562226317258,70,female,German,NA,NA,NA,Very hard,Very easy,images/9.jpg,9,<br /> <br />   <br /> <br /> How well can you detect objects in the painting?,4,Thu Jul 04 2019 09:39:18 GMT+0200 (CEST),1562225958637,5.977016666666667,rating_scale_object,15
401,,4551,22,,Graduated High School,1562226317258,70,female,German,NA,NA,NA,Very hard,Very easy,images/13.jpg,13,<br /> <br />   <br /> <br /> How well can you detect objects in the painting?,2,Thu Jul 04 2019 09:39:18 GMT+0200 (CEST),1562225958637,5.977016666666667,rating_scale_object,16
401,,2524,22,,Graduated High School,1562226317258,70,female,German,NA,NA,NA,Very hard,Very easy,images/16.jpg,16,<br /> <br />   <br /> <br /> How well can you detect objects in the painting?,3,Thu Jul 04 2019 09:39:18 GMT+0200 (CEST),1562225958637,5.977016666666667,rating_scale_object,17
401,,4186,22,,Graduated High School,1562226317258,70,female,German,NA,NA,NA,Very hard,Very easy,images/6.jpg,6,<br /> <br />   <br /> <br /> How well can you detect objects in the painting?,2,Thu Jul 04 2019 09:39:18 GMT+0200 (CEST),1562225958637,5.977016666666667,rating_scale_object,18
401,,3476,22,,Graduated High School,1562226317258,70,female,German,NA,NA,NA,Very hard,Very easy,images/8.jpg,8,<br /> <br />   <br /> <br /> How well can you detect objects in the painting?,3,Thu Jul 04 2019 09:39:18 GMT+0200 (CEST),1562225958637,5.977016666666667,rating_scale_object,19
401,,4587,22,,Graduated High School,1562226317258,70,female,German,NA,NA,NA,Very hard,Very easy,images/17.jpg,17,<br /> <br />   <br /> <br /> How well can you detect objects in the painting?,4,Thu Jul 04 2019 09:39:18 GMT+0200 (CEST),1562225958637,5.977016666666667,rating_scale_object,20
401,,12689,22,,Graduated High School,1562226317258,70,female,German,NA,NA,NA,Very hard,Very easy,images/21.jpg,21,<br /> <br />   <br /> <br /> How well can you detect objects in the painting?,6,Thu Jul 04 2019 09:39:18 GMT+0200 (CEST),1562225958637,5.977016666666667,rating_scale_object,21
401,,2400,22,,Graduated High School,1562226317258,70,female,German,NA,NA,NA,Very hard,Very easy,images/27.jpg,27,<br /> <br />   <br /> <br /> How well can you detect objects in the painting?,7,Thu Jul 04 2019 09:39:18 GMT+0200 (CEST),1562225958637,5.977016666666667,rating_scale_object,22
401,,1755,22,,Graduated High School,1562226317258,70,female,German,NA,NA,NA,Very hard,Very easy,images/19.jpg,19,<br /> <br />   <br /> <br /> How well can you detect objects in the painting?,1,Thu Jul 04 2019 09:39:18 GMT+0200 (CEST),1562225958637,5.977016666666667,rating_scale_object,23
401,,2073,22,,Graduated High School,1562226317258,70,female,German,NA,NA,NA,Very hard,Very easy,images/1.jpg,1,<br /> <br />   <br /> <br /> How well can you detect objects in the painting?,3,Thu Jul 04 2019 09:39:18 GMT+0200 (CEST),1562225958637,5.977016666666667,rating_scale_object,24
401,,2739,22,,Graduated High School,1562226317258,70,female,German,NA,NA,NA,Very hard,Very easy,images/28.jpg,28,<br /> <br />   <br /> <br /> How well can you detect objects in the painting?,6,Thu Jul 04 2019 09:39:18 GMT+0200 (CEST),1562225958637,5.977016666666667,rating_scale_object,25
401,,2141,22,,Graduated High School,1562226317258,70,female,German,NA,NA,NA,Very hard,Very easy,images/26.jpg,26,<br /> <br />   <br /> <br /> How well can you detect objects in the painting?,7,Thu Jul 04 2019 09:39:18 GMT+0200 (CEST),1562225958637,5.977016666666667,rating_scale_object,26
401,,2183,22,,Graduated High School,1562226317258,70,female,German,NA,NA,NA,Very hard,Very easy,images/15.jpg,15,<br /> <br />   <br /> <br /> How well can you detect objects in the painting?,3,Thu Jul 04 2019 09:39:18 GMT+0200 (CEST),1562225958637,5.977016666666667,rating_scale_object,27
401,,2702,22,,Graduated High School,1562226317258,70,female,German,NA,NA,NA,Very hard,Very easy,images/3.jpg,3,<br /> <br />   <br /> <br /> How well can you detect objects in the painting?,4,Thu Jul 04 2019 09:39:18 GMT+0200 (CEST),1562225958637,5.977016666666667,rating_scale_object,28
401,,2988,22,,Graduated High School,1562226317258,70,female,German,NA,NA,NA,Very hard,Very easy,images/7.jpg,7,<br /> <br />   <br /> <br /> How well can you detect objects in the painting?,4,Thu Jul 04 2019 09:39:18 GMT+0200 (CEST),1562225958637,5.977016666666667,rating_scale_object,29
401,,3799,22,,Graduated High School,1562226317258,70,female,German,NA,NA,NA,Very hard,Very easy,images/20.jpg,20,<br /> <br />   <br /> <br /> How well can you detect objects in the painting?,2,Thu Jul 04 2019 09:39:18 GMT+0200 (CEST),1562225958637,5.977016666666667,rating_scale_object,30
401,,12542,22,,Graduated High School,1562226317258,70,female,German,1,NA,NA,NA,NA,images/Visiontest.jpg,NA,<br /> <br /> <br /> <br /> Please fill in the box with the smallest letter combination that you can read.,JSE,Thu Jul 04 2019 09:39:18 GMT+0200 (CEST),1562225958637,5.977016666666667,vision_test,1
401,,10152,22,,Graduated High School,1562226317258,70,female,German,1,NA,NA,NA,NA,images/Visiontest_2.jpg,NA,<br /> <br /> <br /> <br /> Please fill in the box with the letter combination that is accentuated.,JSE,Thu Jul 04 2019 09:39:18 GMT+0200 (CEST),1562225958637,5.977016666666667,vision_test_2,1
401,,9155,22,,Graduated High School,1562226317258,70,female,German,1,NA,NA,NA,NA,images/ishihara.png,NA,Which number do you see in the picture?,74,Thu Jul 04 2019 09:39:18 GMT+0200 (CEST),1562225958637,5.977016666666667,ishihara,1
401,,13362,22,,Graduated High School,1562226317258,70,female,German,NA,NA,NA,not at all,absolutely,NA,NA,"The paintings you just saw are artworks by Picasso, Braque and Gris. They are part of the art style cubism. <br /> <br /> Are you an expert in cubism?",1,Thu Jul 04 2019 09:39:18 GMT+0200 (CEST),1562225958637,5.977016666666667,expert,1
399,,25766,22,,Graduated High School,1562191786643,70,female,German,NA,yes,absolutely yes,NA,NA,images/Hand.png,NA,"It is important that you complete the experiment on your computer and not on your smartphone. <br /> <br /> For the experiment you have to be seated with a distance of 55 cm in front of your computer desktop. Because this is approximately one armlength, you can put your hand on the sketch to adjust your seating position. <br /> <br /> Are you ready?",absolutely,Thu Jul 04 2019 00:01:30 GMT+0200 (Mitteleuropäische Sommerzeit),1562191290991,8.260866666666667,desktop_distance,1
399,,3949,22,,Graduated High School,1562191786643,70,female,German,NA,NA,NA,Not at all,Very much,images/27.jpg,27,  <br /> <br />   <br /> <br /> How much do you like the painting?,5,Thu Jul 04 2019 00:01:30 GMT+0200 (Mitteleuropäische Sommerzeit),1562191290991,8.260866666666667,rating_scale_like,1
399,,5792,22,,Graduated High School,1562191786643,70,female,German,NA,NA,NA,Not at all,Very much,images/25.jpg,25,  <br /> <br />   <br /> <br /> How much do you like the painting?,3,Thu Jul 04 2019 00:01:30 GMT+0200 (Mitteleuropäische Sommerzeit),1562191290991,8.260866666666667,rating_scale_like,2
399,,3476,22,,Graduated High School,1562191786643,70,female,German,NA,NA,NA,Not at all,Very much,images/7.jpg,7,  <br /> <br />   <br /> <br /> How much do you like the painting?,5,Thu Jul 04 2019 00:01:30 GMT+0200 (Mitteleuropäische Sommerzeit),1562191290991,8.260866666666667,rating_scale_like,3
399,,7489,22,,Graduated High School,1562191786643,70,female,German,NA,NA,NA,Not at all,Very much,images/26.jpg,26,  <br /> <br />   <br /> <br /> How much do you like the painting?,3,Thu Jul 04 2019 00:01:30 GMT+0200 (Mitteleuropäische Sommerzeit),1562191290991,8.260866666666667,rating_scale_like,4
399,,2567,22,,Graduated High School,1562191786643,70,female,German,NA,NA,NA,Not at all,Very much,images/2.jpg,2,  <br /> <br />   <br /> <br /> How much do you like the painting?,6,Thu Jul 04 2019 00:01:30 GMT+0200 (Mitteleuropäische Sommerzeit),1562191290991,8.260866666666667,rating_scale_like,5
399,,3283,22,,Graduated High School,1562191786643,70,female,German,NA,NA,NA,Not at all,Very much,images/22.jpg,22,  <br /> <br />   <br /> <br /> How much do you like the painting?,2,Thu Jul 04 2019 00:01:30 GMT+0200 (Mitteleuropäische Sommerzeit),1562191290991,8.260866666666667,rating_scale_like,6
399,,6388,22,,Graduated High School,1562191786643,70,female,German,NA,NA,NA,Not at all,Very much,images/3.jpg,3,  <br /> <br />   <br /> <br /> How much do you like the painting?,5,Thu Jul 04 2019 00:01:30 GMT+0200 (Mitteleuropäische Sommerzeit),1562191290991,8.260866666666667,rating_scale_like,7
399,,3167,22,,Graduated High School,1562191786643,70,female,German,NA,NA,NA,Not at all,Very much,images/17.jpg,17,  <br /> <br />   <br /> <br /> How much do you like the painting?,2,Thu Jul 04 2019 00:01:30 GMT+0200 (Mitteleuropäische Sommerzeit),1562191290991,8.260866666666667,rating_scale_like,8
399,,8398,22,,Graduated High School,1562191786643,70,female,German,NA,NA,NA,Not at all,Very much,images/11.jpg,11,  <br /> <br />   <br /> <br /> How much do you like the painting?,4,Thu Jul 04 2019 00:01:30 GMT+0200 (Mitteleuropäische Sommerzeit),1562191290991,8.260866666666667,rating_scale_like,9
399,,6064,22,,Graduated High School,1562191786643,70,female,German,NA,NA,NA,Not at all,Very much,images/29.jpg,29,  <br /> <br />   <br /> <br /> How much do you like the painting?,2,Thu Jul 04 2019 00:01:30 GMT+0200 (Mitteleuropäische Sommerzeit),1562191290991,8.260866666666667,rating_scale_like,10
399,,3911,22,,Graduated High School,1562191786643,70,female,German,NA,NA,NA,Not at all,Very much,images/28.jpg,28,  <br /> <br />   <br /> <br /> How much do you like the painting?,2,Thu Jul 04 2019 00:01:30 GMT+0200 (Mitteleuropäische Sommerzeit),1562191290991,8.260866666666667,rating_scale_like,11
399,,4022,22,,Graduated High School,1562191786643,70,female,German,NA,NA,NA,Not at all,Very much,images/30.jpg,30,  <br /> <br />   <br /> <br /> How much do you like the painting?,3,Thu Jul 04 2019 00:01:30 GMT+0200 (Mitteleuropäische Sommerzeit),1562191290991,8.260866666666667,rating_scale_like,12
399,,3381,22,,Graduated High School,1562191786643,70,female,German,NA,NA,NA,Not at all,Very much,images/9.jpg,9,  <br /> <br />   <br /> <br /> How much do you like the painting?,6,Thu Jul 04 2019 00:01:30 GMT+0200 (Mitteleuropäische Sommerzeit),1562191290991,8.260866666666667,rating_scale_like,13
399,,3715,22,,Graduated High School,1562191786643,70,female,German,NA,NA,NA,Not at all,Very much,images/23.jpg,23,  <br /> <br />   <br /> <br /> How much do you like the painting?,2,Thu Jul 04 2019 00:01:30 GMT+0200 (Mitteleuropäische Sommerzeit),1562191290991,8.260866666666667,rating_scale_like,14
399,,2854,22,,Graduated High School,1562191786643,70,female,German,NA,NA,NA,Not at all,Very much,images/4.jpg,4,  <br /> <br />   <br /> <br /> How much do you like the painting?,4,Thu Jul 04 2019 00:01:30 GMT+0200 (Mitteleuropäische Sommerzeit),1562191290991,8.260866666666667,rating_scale_like,15
399,,4953,22,,Graduated High School,1562191786643,70,female,German,NA,NA,NA,Not at all,Very much,images/15.jpg,15,  <br /> <br />   <br /> <br /> How much do you like the painting?,3,Thu Jul 04 2019 00:01:30 GMT+0200 (Mitteleuropäische Sommerzeit),1562191290991,8.260866666666667,rating_scale_like,16
399,,2760,22,,Graduated High School,1562191786643,70,female,German,NA,NA,NA,Not at all,Very much,images/12.jpg,12,  <br /> <br />   <br /> <br /> How much do you like the painting?,4,Thu Jul 04 2019 00:01:30 GMT+0200 (Mitteleuropäische Sommerzeit),1562191290991,8.260866666666667,rating_scale_like,17
399,,4836,22,,Graduated High School,1562191786643,70,female,German,NA,NA,NA,Not at all,Very much,images/16.jpg,16,  <br /> <br />   <br /> <br /> How much do you like the painting?,4,Thu Jul 04 2019 00:01:30 GMT+0200 (Mitteleuropäische Sommerzeit),1562191290991,8.260866666666667,rating_scale_like,18
399,,5009,22,,Graduated High School,1562191786643,70,female,German,NA,NA,NA,Not at all,Very much,images/5.jpg,5,  <br /> <br />   <br /> <br /> How much do you like the painting?,4,Thu Jul 04 2019 00:01:30 GMT+0200 (Mitteleuropäische Sommerzeit),1562191290991,8.260866666666667,rating_scale_like,19
399,,3651,22,,Graduated High School,1562191786643,70,female,German,NA,NA,NA,Not at all,Very much,images/1.jpg,1,  <br /> <br />   <br /> <br /> How much do you like the painting?,4,Thu Jul 04 2019 00:01:30 GMT+0200 (Mitteleuropäische Sommerzeit),1562191290991,8.260866666666667,rating_scale_like,20
399,,3652,22,,Graduated High School,1562191786643,70,female,German,NA,NA,NA,Not at all,Very much,images/13.jpg,13,  <br /> <br />   <br /> <br /> How much do you like the painting?,3,Thu Jul 04 2019 00:01:30 GMT+0200 (Mitteleuropäische Sommerzeit),1562191290991,8.260866666666667,rating_scale_like,21
399,,5029,22,,Graduated High School,1562191786643,70,female,German,NA,NA,NA,Not at all,Very much,images/19.jpg,19,  <br /> <br />   <br /> <br /> How much do you like the painting?,5,Thu Jul 04 2019 00:01:30 GMT+0200 (Mitteleuropäische Sommerzeit),1562191290991,8.260866666666667,rating_scale_like,22
399,,6333,22,,Graduated High School,1562191786643,70,female,German,NA,NA,NA,Not at all,Very much,images/6.jpg,6,  <br /> <br />   <br /> <br /> How much do you like the painting?,3,Thu Jul 04 2019 00:01:30 GMT+0200 (Mitteleuropäische Sommerzeit),1562191290991,8.260866666666667,rating_scale_like,23
399,,2845,22,,Graduated High School,1562191786643,70,female,German,NA,NA,NA,Not at all,Very much,images/18.jpg,18,  <br /> <br />   <br /> <br /> How much do you like the painting?,2,Thu Jul 04 2019 00:01:30 GMT+0200 (Mitteleuropäische Sommerzeit),1562191290991,8.260866666666667,rating_scale_like,24
399,,3918,22,,Graduated High School,1562191786643,70,female,German,NA,NA,NA,Not at all,Very much,images/24.jpg,24,  <br /> <br />   <br /> <br /> How much do you like the painting?,2,Thu Jul 04 2019 00:01:30 GMT+0200 (Mitteleuropäische Sommerzeit),1562191290991,8.260866666666667,rating_scale_like,25
399,,7481,22,,Graduated High School,1562191786643,70,female,German,NA,NA,NA,Not at all,Very much,images/20.jpg,20,  <br /> <br />   <br /> <br /> How much do you like the painting?,2,Thu Jul 04 2019 00:01:30 GMT+0200 (Mitteleuropäische Sommerzeit),1562191290991,8.260866666666667,rating_scale_like,26
399,,5212,22,,Graduated High School,1562191786643,70,female,German,NA,NA,NA,Not at all,Very much,images/21.jpg,21,  <br /> <br />   <br /> <br /> How much do you like the painting?,3,Thu Jul 04 2019 00:01:30 GMT+0200 (Mitteleuropäische Sommerzeit),1562191290991,8.260866666666667,rating_scale_like,27
399,,4085,22,,Graduated High School,1562191786643,70,female,German,NA,NA,NA,Not at all,Very much,images/8.jpg,8,  <br /> <br />   <br /> <br /> How much do you like the painting?,3,Thu Jul 04 2019 00:01:30 GMT+0200 (Mitteleuropäische Sommerzeit),1562191290991,8.260866666666667,rating_scale_like,28
399,,2316,22,,Graduated High School,1562191786643,70,female,German,NA,NA,NA,Not at all,Very much,images/14.jpg,14,  <br /> <br />   <br /> <br /> How much do you like the painting?,2,Thu Jul 04 2019 00:01:30 GMT+0200 (Mitteleuropäische Sommerzeit),1562191290991,8.260866666666667,rating_scale_like,29
399,,24925,22,,Graduated High School,1562191786643,70,female,German,NA,NA,NA,Not at all,Very much,images/10.jpg,10,  <br /> <br />   <br /> <br /> How much do you like the painting?,4,Thu Jul 04 2019 00:01:30 GMT+0200 (Mitteleuropäische Sommerzeit),1562191290991,8.260866666666667,rating_scale_like,30
399,,10903,22,,Graduated High School,1562191786643,70,female,German,NA,NA,NA,Very hard,Very easy,images/19.jpg,19,<br /> <br />   <br /> <br /> How well can you detect objects in the painting?,4,Thu Jul 04 2019 00:01:30 GMT+0200 (Mitteleuropäische Sommerzeit),1562191290991,8.260866666666667,rating_scale_object,1
399,,4107,22,,Graduated High School,1562191786643,70,female,German,NA,NA,NA,Very hard,Very easy,images/3.jpg,3,<br /> <br />   <br /> <br /> How well can you detect objects in the painting?,3,Thu Jul 04 2019 00:01:30 GMT+0200 (Mitteleuropäische Sommerzeit),1562191290991,8.260866666666667,rating_scale_object,2
399,,5715,22,,Graduated High School,1562191786643,70,female,German,NA,NA,NA,Very hard,Very easy,images/28.jpg,28,<br /> <br />   <br /> <br /> How well can you detect objects in the painting?,5,Thu Jul 04 2019 00:01:30 GMT+0200 (Mitteleuropäische Sommerzeit),1562191290991,8.260866666666667,rating_scale_object,3
399,,8252,22,,Graduated High School,1562191786643,70,female,German,NA,NA,NA,Very hard,Very easy,images/5.jpg,5,<br /> <br />   <br /> <br /> How well can you detect objects in the painting?,3,Thu Jul 04 2019 00:01:30 GMT+0200 (Mitteleuropäische Sommerzeit),1562191290991,8.260866666666667,rating_scale_object,4
399,,6654,22,,Graduated High School,1562191786643,70,female,German,NA,NA,NA,Very hard,Very easy,images/16.jpg,16,<br /> <br />   <br /> <br /> How well can you detect objects in the painting?,3,Thu Jul 04 2019 00:01:30 GMT+0200 (Mitteleuropäische Sommerzeit),1562191290991,8.260866666666667,rating_scale_object,5
399,,6218,22,,Graduated High School,1562191786643,70,female,German,NA,NA,NA,Very hard,Very easy,images/26.jpg,26,<br /> <br />   <br /> <br /> How well can you detect objects in the painting?,5,Thu Jul 04 2019 00:01:30 GMT+0200 (Mitteleuropäische Sommerzeit),1562191290991,8.260866666666667,rating_scale_object,6
399,,9715,22,,Graduated High School,1562191786643,70,female,German,NA,NA,NA,Very hard,Very easy,images/30.jpg,30,<br /> <br />   <br /> <br /> How well can you detect objects in the painting?,1,Thu Jul 04 2019 00:01:30 GMT+0200 (Mitteleuropäische Sommerzeit),1562191290991,8.260866666666667,rating_scale_object,7
399,,3716,22,,Graduated High School,1562191786643,70,female,German,NA,NA,NA,Very hard,Very easy,images/25.jpg,25,<br /> <br />   <br /> <br /> How well can you detect objects in the painting?,6,Thu Jul 04 2019 00:01:30 GMT+0200 (Mitteleuropäische Sommerzeit),1562191290991,8.260866666666667,rating_scale_object,8
399,,2616,22,,Graduated High School,1562191786643,70,female,German,NA,NA,NA,Very hard,Very easy,images/24.jpg,24,<br /> <br />   <br /> <br /> How well can you detect objects in the painting?,6,Thu Jul 04 2019 00:01:30 GMT+0200 (Mitteleuropäische Sommerzeit),1562191290991,8.260866666666667,rating_scale_object,9
399,,3439,22,,Graduated High School,1562191786643,70,female,German,NA,NA,NA,Very hard,Very easy,images/12.jpg,12,<br /> <br />   <br /> <br /> How well can you detect objects in the painting?,4,Thu Jul 04 2019 00:01:30 GMT+0200 (Mitteleuropäische Sommerzeit),1562191290991,8.260866666666667,rating_scale_object,10
399,,6194,22,,Graduated High School,1562191786643,70,female,German,NA,NA,NA,Very hard,Very easy,images/22.jpg,22,<br /> <br />   <br /> <br /> How well can you detect objects in the painting?,5,Thu Jul 04 2019 00:01:30 GMT+0200 (Mitteleuropäische Sommerzeit),1562191290991,8.260866666666667,rating_scale_object,11
399,,3348,22,,Graduated High School,1562191786643,70,female,German,NA,NA,NA,Very hard,Very easy,images/21.jpg,21,<br /> <br />   <br /> <br /> How well can you detect objects in the painting?,7,Thu Jul 04 2019 00:01:30 GMT+0200 (Mitteleuropäische Sommerzeit),1562191290991,8.260866666666667,rating_scale_object,12
399,,4628,22,,Graduated High School,1562191786643,70,female,German,NA,NA,NA,Very hard,Very easy,images/1.jpg,1,<br /> <br />   <br /> <br /> How well can you detect objects in the painting?,3,Thu Jul 04 2019 00:01:30 GMT+0200 (Mitteleuropäische Sommerzeit),1562191290991,8.260866666666667,rating_scale_object,13
399,,8627,22,,Graduated High School,1562191786643,70,female,German,NA,NA,NA,Very hard,Very easy,images/6.jpg,6,<br /> <br />   <br /> <br /> How well can you detect objects in the painting?,1,Thu Jul 04 2019 00:01:30 GMT+0200 (Mitteleuropäische Sommerzeit),1562191290991,8.260866666666667,rating_scale_object,14
399,,3956,22,,Graduated High School,1562191786643,70,female,German,NA,NA,NA,Very hard,Very easy,images/27.jpg,27,<br /> <br />   <br /> <br /> How well can you detect objects in the painting?,7,Thu Jul 04 2019 00:01:30 GMT+0200 (Mitteleuropäische Sommerzeit),1562191290991,8.260866666666667,rating_scale_object,15
399,,8217,22,,Graduated High School,1562191786643,70,female,German,NA,NA,NA,Very hard,Very easy,images/4.jpg,4,<br /> <br />   <br /> <br /> How well can you detect objects in the painting?,1,Thu Jul 04 2019 00:01:30 GMT+0200 (Mitteleuropäische Sommerzeit),1562191290991,8.260866666666667,rating_scale_object,16
399,,4440,22,,Graduated High School,1562191786643,70,female,German,NA,NA,NA,Very hard,Very easy,images/13.jpg,13,<br /> <br />   <br /> <br /> How well can you detect objects in the painting?,1,Thu Jul 04 2019 00:01:30 GMT+0200 (Mitteleuropäische Sommerzeit),1562191290991,8.260866666666667,rating_scale_object,17
399,,9615,22,,Graduated High School,1562191786643,70,female,German,NA,NA,NA,Very hard,Very easy,images/15.jpg,15,<br /> <br />   <br /> <br /> How well can you detect objects in the painting?,1,Thu Jul 04 2019 00:01:30 GMT+0200 (Mitteleuropäische Sommerzeit),1562191290991,8.260866666666667,rating_scale_object,18
399,,5130,22,,Graduated High School,1562191786643,70,female,German,NA,NA,NA,Very hard,Very easy,images/2.jpg,2,<br /> <br />   <br /> <br /> How well can you detect objects in the painting?,1,Thu Jul 04 2019 00:01:30 GMT+0200 (Mitteleuropäische Sommerzeit),1562191290991,8.260866666666667,rating_scale_object,19
399,,4920,22,,Graduated High School,1562191786643,70,female,German,NA,NA,NA,Very hard,Very easy,images/11.jpg,11,<br /> <br />   <br /> <br /> How well can you detect objects in the painting?,2,Thu Jul 04 2019 00:01:30 GMT+0200 (Mitteleuropäische Sommerzeit),1562191290991,8.260866666666667,rating_scale_object,20
399,,13659,22,,Graduated High School,1562191786643,70,female,German,NA,NA,NA,Very hard,Very easy,images/14.jpg,14,<br /> <br />   <br /> <br /> How well can you detect objects in the painting?,2,Thu Jul 04 2019 00:01:30 GMT+0200 (Mitteleuropäische Sommerzeit),1562191290991,8.260866666666667,rating_scale_object,21
399,,10284,22,,Graduated High School,1562191786643,70,female,German,NA,NA,NA,Very hard,Very easy,images/20.jpg,20,<br /> <br />   <br /> <br /> How well can you detect objects in the painting?,2,Thu Jul 04 2019 00:01:30 GMT+0200 (Mitteleuropäische Sommerzeit),1562191290991,8.260866666666667,rating_scale_object,22
399,,11858,22,,Graduated High School,1562191786643,70,female,German,NA,NA,NA,Very hard,Very easy,images/18.jpg,18,<br /> <br />   <br /> <br /> How well can you detect objects in the painting?,1,Thu Jul 04 2019 00:01:30 GMT+0200 (Mitteleuropäische Sommerzeit),1562191290991,8.260866666666667,rating_scale_object,23
399,,8981,22,,Graduated High School,1562191786643,70,female,German,NA,NA,NA,Very hard,Very easy,images/17.jpg,17,<br /> <br />   <br /> <br /> How well can you detect objects in the painting?,2,Thu Jul 04 2019 00:01:30 GMT+0200 (Mitteleuropäische Sommerzeit),1562191290991,8.260866666666667,rating_scale_object,24
399,,6493,22,,Graduated High School,1562191786643,70,female,German,NA,NA,NA,Very hard,Very easy,images/9.jpg,9,<br /> <br />   <br /> <br /> How well can you detect objects in the painting?,4,Thu Jul 04 2019 00:01:30 GMT+0200 (Mitteleuropäische Sommerzeit),1562191290991,8.260866666666667,rating_scale_object,25
399,,4026,22,,Graduated High School,1562191786643,70,female,German,NA,NA,NA,Very hard,Very easy,images/10.jpg,10,<br /> <br />   <br /> <br /> How well can you detect objects in the painting?,4,Thu Jul 04 2019 00:01:30 GMT+0200 (Mitteleuropäische Sommerzeit),1562191290991,8.260866666666667,rating_scale_object,26
399,,3173,22,,Graduated High School,1562191786643,70,female,German,NA,NA,NA,Very hard,Very easy,images/23.jpg,23,<br /> <br />   <br /> <br /> How well can you detect objects in the painting?,6,Thu Jul 04 2019 00:01:30 GMT+0200 (Mitteleuropäische Sommerzeit),1562191290991,8.260866666666667,rating_scale_object,27
399,,4069,22,,Graduated High School,1562191786643,70,female,German,NA,NA,NA,Very hard,Very easy,images/7.jpg,7,<br /> <br />   <br /> <br /> How well can you detect objects in the painting?,5,Thu Jul 04 2019 00:01:30 GMT+0200 (Mitteleuropäische Sommerzeit),1562191290991,8.260866666666667,rating_scale_object,28
399,,3180,22,,Graduated High School,1562191786643,70,female,German,NA,NA,NA,Very hard,Very easy,images/29.jpg,29,<br /> <br />   <br /> <br /> How well can you detect objects in the painting?,6,Thu Jul 04 2019 00:01:30 GMT+0200 (Mitteleuropäische Sommerzeit),1562191290991,8.260866666666667,rating_scale_object,29
399,,5339,22,,Graduated High School,1562191786643,70,female,German,NA,NA,NA,Very hard,Very easy,images/8.jpg,8,<br /> <br />   <br /> <br /> How well can you detect objects in the painting?,4,Thu Jul 04 2019 00:01:30 GMT+0200 (Mitteleuropäische Sommerzeit),1562191290991,8.260866666666667,rating_scale_object,30
399,,20275,22,,Graduated High School,1562191786643,70,female,German,1,NA,NA,NA,NA,images/Visiontest.jpg,NA,<br /> <br /> <br /> <br /> Please fill in the box with the smallest letter combination that you can read.,JSE,Thu Jul 04 2019 00:01:30 GMT+0200 (Mitteleuropäische Sommerzeit),1562191290991,8.260866666666667,vision_test,1
399,,12907,22,,Graduated High School,1562191786643,70,female,German,1,NA,NA,NA,NA,images/Visiontest_2.jpg,NA,<br /> <br /> <br /> <br /> Please fill in the box with the letter combination that is accentuated.,JSE,Thu Jul 04 2019 00:01:30 GMT+0200 (Mitteleuropäische Sommerzeit),1562191290991,8.260866666666667,vision_test_2,1
399,,14585,22,,Graduated High School,1562191786643,70,female,German,1,NA,NA,NA,NA,images/ishihara.png,NA,Which number do you see in the picture?,74,Thu Jul 04 2019 00:01:30 GMT+0200 (Mitteleuropäische Sommerzeit),1562191290991,8.260866666666667,ishihara,1
399,,13676,22,,Graduated High School,1562191786643,70,female,German,NA,NA,NA,not at all,absolutely,NA,NA,"The paintings you just saw are artworks by Picasso, Braque and Gris. They are part of the art style cubism. <br /> <br /> Are you an expert in cubism?",2,Thu Jul 04 2019 00:01:30 GMT+0200 (Mitteleuropäische Sommerzeit),1562191290991,8.260866666666667,expert,1
397,,14657,20,,Graduated High School,1562189580705,70,female,German ,NA,yes,absolutely yes,NA,NA,images/Hand.png,NA,"It is important that you complete the experiment on your computer and not on your smartphone. <br /> <br /> For the experiment you have to be seated with a distance of 55 cm in front of your computer desktop. Because this is approximately one armlength, you can put your hand on the sketch to adjust your seating position. <br /> <br /> Are you ready?",yes,Wed Jul 03 2019 23:27:25 GMT+0200 (CEST),1562189245125,5.593,desktop_distance,1
397,,13529,20,,Graduated High School,1562189580705,70,female,German ,NA,NA,NA,Not at all,Very much,images/8.jpg,8,  <br /> <br />   <br /> <br /> How much do you like the painting?,4,Wed Jul 03 2019 23:27:25 GMT+0200 (CEST),1562189245125,5.593,rating_scale_like,1
397,,3533,20,,Graduated High School,1562189580705,70,female,German ,NA,NA,NA,Not at all,Very much,images/26.jpg,26,  <br /> <br />   <br /> <br /> How much do you like the painting?,3,Wed Jul 03 2019 23:27:25 GMT+0200 (CEST),1562189245125,5.593,rating_scale_like,2
397,,2142,20,,Graduated High School,1562189580705,70,female,German ,NA,NA,NA,Not at all,Very much,images/5.jpg,5,  <br /> <br />   <br /> <br /> How much do you like the painting?,6,Wed Jul 03 2019 23:27:25 GMT+0200 (CEST),1562189245125,5.593,rating_scale_like,3
397,,4004,20,,Graduated High School,1562189580705,70,female,German ,NA,NA,NA,Not at all,Very much,images/27.jpg,27,  <br /> <br />   <br /> <br /> How much do you like the painting?,6,Wed Jul 03 2019 23:27:25 GMT+0200 (CEST),1562189245125,5.593,rating_scale_like,4
397,,1904,20,,Graduated High School,1562189580705,70,female,German ,NA,NA,NA,Not at all,Very much,images/3.jpg,3,  <br /> <br />   <br /> <br /> How much do you like the painting?,5,Wed Jul 03 2019 23:27:25 GMT+0200 (CEST),1562189245125,5.593,rating_scale_like,5
397,,2386,20,,Graduated High School,1562189580705,70,female,German ,NA,NA,NA,Not at all,Very much,images/6.jpg,6,  <br /> <br />   <br /> <br /> How much do you like the painting?,3,Wed Jul 03 2019 23:27:25 GMT+0200 (CEST),1562189245125,5.593,rating_scale_like,6
397,,2417,20,,Graduated High School,1562189580705,70,female,German ,NA,NA,NA,Not at all,Very much,images/19.jpg,19,  <br /> <br />   <br /> <br /> How much do you like the painting?,4,Wed Jul 03 2019 23:27:25 GMT+0200 (CEST),1562189245125,5.593,rating_scale_like,7
397,,2398,20,,Graduated High School,1562189580705,70,female,German ,NA,NA,NA,Not at all,Very much,images/21.jpg,21,  <br /> <br />   <br /> <br /> How much do you like the painting?,5,Wed Jul 03 2019 23:27:25 GMT+0200 (CEST),1562189245125,5.593,rating_scale_like,8
397,,2529,20,,Graduated High School,1562189580705,70,female,German ,NA,NA,NA,Not at all,Very much,images/24.jpg,24,  <br /> <br />   <br /> <br /> How much do you like the painting?,5,Wed Jul 03 2019 23:27:25 GMT+0200 (CEST),1562189245125,5.593,rating_scale_like,9
397,,1581,20,,Graduated High School,1562189580705,70,female,German ,NA,NA,NA,Not at all,Very much,images/17.jpg,17,  <br /> <br />   <br /> <br /> How much do you like the painting?,3,Wed Jul 03 2019 23:27:25 GMT+0200 (CEST),1562189245125,5.593,rating_scale_like,10
397,,2900,20,,Graduated High School,1562189580705,70,female,German ,NA,NA,NA,Not at all,Very much,images/12.jpg,12,  <br /> <br />   <br /> <br /> How much do you like the painting?,5,Wed Jul 03 2019 23:27:25 GMT+0200 (CEST),1562189245125,5.593,rating_scale_like,11
397,,1735,20,,Graduated High School,1562189580705,70,female,German ,NA,NA,NA,Not at all,Very much,images/30.jpg,30,  <br /> <br />   <br /> <br /> How much do you like the painting?,4,Wed Jul 03 2019 23:27:25 GMT+0200 (CEST),1562189245125,5.593,rating_scale_like,12
397,,4019,20,,Graduated High School,1562189580705,70,female,German ,NA,NA,NA,Not at all,Very much,images/28.jpg,28,  <br /> <br />   <br /> <br /> How much do you like the painting?,3,Wed Jul 03 2019 23:27:25 GMT+0200 (CEST),1562189245125,5.593,rating_scale_like,13
397,,3976,20,,Graduated High School,1562189580705,70,female,German ,NA,NA,NA,Not at all,Very much,images/15.jpg,15,  <br /> <br />   <br /> <br /> How much do you like the painting?,4,Wed Jul 03 2019 23:27:25 GMT+0200 (CEST),1562189245125,5.593,rating_scale_like,14
397,,2174,20,,Graduated High School,1562189580705,70,female,German ,NA,NA,NA,Not at all,Very much,images/22.jpg,22,  <br /> <br />   <br /> <br /> How much do you like the painting?,2,Wed Jul 03 2019 23:27:25 GMT+0200 (CEST),1562189245125,5.593,rating_scale_like,15
397,,1967,20,,Graduated High School,1562189580705,70,female,German ,NA,NA,NA,Not at all,Very much,images/7.jpg,7,  <br /> <br />   <br /> <br /> How much do you like the painting?,6,Wed Jul 03 2019 23:27:25 GMT+0200 (CEST),1562189245125,5.593,rating_scale_like,16
397,,1785,20,,Graduated High School,1562189580705,70,female,German ,NA,NA,NA,Not at all,Very much,images/18.jpg,18,  <br /> <br />   <br /> <br /> How much do you like the painting?,4,Wed Jul 03 2019 23:27:25 GMT+0200 (CEST),1562189245125,5.593,rating_scale_like,17
397,,3019,20,,Graduated High School,1562189580705,70,female,German ,NA,NA,NA,Not at all,Very much,images/29.jpg,29,  <br /> <br />   <br /> <br /> How much do you like the painting?,3,Wed Jul 03 2019 23:27:25 GMT+0200 (CEST),1562189245125,5.593,rating_scale_like,18
397,,1970,20,,Graduated High School,1562189580705,70,female,German ,NA,NA,NA,Not at all,Very much,images/23.jpg,23,  <br /> <br />   <br /> <br /> How much do you like the painting?,3,Wed Jul 03 2019 23:27:25 GMT+0200 (CEST),1562189245125,5.593,rating_scale_like,19
397,,1538,20,,Graduated High School,1562189580705,70,female,German ,NA,NA,NA,Not at all,Very much,images/1.jpg,1,  <br /> <br />   <br /> <br /> How much do you like the painting?,4,Wed Jul 03 2019 23:27:25 GMT+0200 (CEST),1562189245125,5.593,rating_scale_like,20
397,,1773,20,,Graduated High School,1562189580705,70,female,German ,NA,NA,NA,Not at all,Very much,images/16.jpg,16,  <br /> <br />   <br /> <br /> How much do you like the painting?,5,Wed Jul 03 2019 23:27:25 GMT+0200 (CEST),1562189245125,5.593,rating_scale_like,21
397,,1340,20,,Graduated High School,1562189580705,70,female,German ,NA,NA,NA,Not at all,Very much,images/25.jpg,25,  <br /> <br />   <br /> <br /> How much do you like the painting?,4,Wed Jul 03 2019 23:27:25 GMT+0200 (CEST),1562189245125,5.593,rating_scale_like,22
397,,1159,20,,Graduated High School,1562189580705,70,female,German ,NA,NA,NA,Not at all,Very much,images/2.jpg,2,  <br /> <br />   <br /> <br /> How much do you like the painting?,3,Wed Jul 03 2019 23:27:25 GMT+0200 (CEST),1562189245125,5.593,rating_scale_like,23
397,,1053,20,,Graduated High School,1562189580705,70,female,German ,NA,NA,NA,Not at all,Very much,images/13.jpg,13,  <br /> <br />   <br /> <br /> How much do you like the painting?,5,Wed Jul 03 2019 23:27:25 GMT+0200 (CEST),1562189245125,5.593,rating_scale_like,24
397,,1248,20,,Graduated High School,1562189580705,70,female,German ,NA,NA,NA,Not at all,Very much,images/10.jpg,10,  <br /> <br />   <br /> <br /> How much do you like the painting?,6,Wed Jul 03 2019 23:27:25 GMT+0200 (CEST),1562189245125,5.593,rating_scale_like,25
397,,3720,20,,Graduated High School,1562189580705,70,female,German ,NA,NA,NA,Not at all,Very much,images/11.jpg,11,  <br /> <br />   <br /> <br /> How much do you like the painting?,2,Wed Jul 03 2019 23:27:25 GMT+0200 (CEST),1562189245125,5.593,rating_scale_like,26
397,,2526,20,,Graduated High School,1562189580705,70,female,German ,NA,NA,NA,Not at all,Very much,images/20.jpg,20,  <br /> <br />   <br /> <br /> How much do you like the painting?,4,Wed Jul 03 2019 23:27:25 GMT+0200 (CEST),1562189245125,5.593,rating_scale_like,27
397,,2356,20,,Graduated High School,1562189580705,70,female,German ,NA,NA,NA,Not at all,Very much,images/14.jpg,14,  <br /> <br />   <br /> <br /> How much do you like the painting?,4,Wed Jul 03 2019 23:27:25 GMT+0200 (CEST),1562189245125,5.593,rating_scale_like,28
397,,2095,20,,Graduated High School,1562189580705,70,female,German ,NA,NA,NA,Not at all,Very much,images/4.jpg,4,  <br /> <br />   <br /> <br /> How much do you like the painting?,3,Wed Jul 03 2019 23:27:25 GMT+0200 (CEST),1562189245125,5.593,rating_scale_like,29
397,,2015,20,,Graduated High School,1562189580705,70,female,German ,NA,NA,NA,Not at all,Very much,images/9.jpg,9,  <br /> <br />   <br /> <br /> How much do you like the painting?,2,Wed Jul 03 2019 23:27:25 GMT+0200 (CEST),1562189245125,5.593,rating_scale_like,30
397,,6377,20,,Graduated High School,1562189580705,70,female,German ,NA,NA,NA,Very hard,Very easy,images/19.jpg,19,<br /> <br />   <br /> <br /> How well can you detect objects in the painting?,1,Wed Jul 03 2019 23:27:25 GMT+0200 (CEST),1562189245125,5.593,rating_scale_object,1
397,,3250,20,,Graduated High School,1562189580705,70,female,German ,NA,NA,NA,Very hard,Very easy,images/14.jpg,14,<br /> <br />   <br /> <br /> How well can you detect objects in the painting?,1,Wed Jul 03 2019 23:27:25 GMT+0200 (CEST),1562189245125,5.593,rating_scale_object,2
397,,9310,20,,Graduated High School,1562189580705,70,female,German ,NA,NA,NA,Very hard,Very easy,images/28.jpg,28,<br /> <br />   <br /> <br /> How well can you detect objects in the painting?,3,Wed Jul 03 2019 23:27:25 GMT+0200 (CEST),1562189245125,5.593,rating_scale_object,3
397,,2233,20,,Graduated High School,1562189580705,70,female,German ,NA,NA,NA,Very hard,Very easy,images/5.jpg,5,<br /> <br />   <br /> <br /> How well can you detect objects in the painting?,2,Wed Jul 03 2019 23:27:25 GMT+0200 (CEST),1562189245125,5.593,rating_scale_object,4
397,,3958,20,,Graduated High School,1562189580705,70,female,German ,NA,NA,NA,Very hard,Very easy,images/25.jpg,25,<br /> <br />   <br /> <br /> How well can you detect objects in the painting?,6,Wed Jul 03 2019 23:27:25 GMT+0200 (CEST),1562189245125,5.593,rating_scale_object,5
397,,2283,20,,Graduated High School,1562189580705,70,female,German ,NA,NA,NA,Very hard,Very easy,images/29.jpg,29,<br /> <br />   <br /> <br /> How well can you detect objects in the painting?,3,Wed Jul 03 2019 23:27:25 GMT+0200 (CEST),1562189245125,5.593,rating_scale_object,6
397,,2504,20,,Graduated High School,1562189580705,70,female,German ,NA,NA,NA,Very hard,Very easy,images/3.jpg,3,<br /> <br />   <br /> <br /> How well can you detect objects in the painting?,3,Wed Jul 03 2019 23:27:25 GMT+0200 (CEST),1562189245125,5.593,rating_scale_object,7
397,,1983,20,,Graduated High School,1562189580705,70,female,German ,NA,NA,NA,Very hard,Very easy,images/12.jpg,12,<br /> <br />   <br /> <br /> How well can you detect objects in the painting?,1,Wed Jul 03 2019 23:27:25 GMT+0200 (CEST),1562189245125,5.593,rating_scale_object,8
397,,1266,20,,Graduated High School,1562189580705,70,female,German ,NA,NA,NA,Very hard,Very easy,images/11.jpg,11,<br /> <br />   <br /> <br /> How well can you detect objects in the painting?,1,Wed Jul 03 2019 23:27:25 GMT+0200 (CEST),1562189245125,5.593,rating_scale_object,9
397,,1232,20,,Graduated High School,1562189580705,70,female,German ,NA,NA,NA,Very hard,Very easy,images/16.jpg,16,<br /> <br />   <br /> <br /> How well can you detect objects in the painting?,1,Wed Jul 03 2019 23:27:25 GMT+0200 (CEST),1562189245125,5.593,rating_scale_object,10
397,,2920,20,,Graduated High School,1562189580705,70,female,German ,NA,NA,NA,Very hard,Very easy,images/6.jpg,6,<br /> <br />   <br /> <br /> How well can you detect objects in the painting?,2,Wed Jul 03 2019 23:27:25 GMT+0200 (CEST),1562189245125,5.593,rating_scale_object,11
397,,1703,20,,Graduated High School,1562189580705,70,female,German ,NA,NA,NA,Very hard,Very easy,images/26.jpg,26,<br /> <br />   <br /> <br /> How well can you detect objects in the painting?,6,Wed Jul 03 2019 23:27:25 GMT+0200 (CEST),1562189245125,5.593,rating_scale_object,12
397,,2518,20,,Graduated High School,1562189580705,70,female,German ,NA,NA,NA,Very hard,Very easy,images/2.jpg,2,<br /> <br />   <br /> <br /> How well can you detect objects in the painting?,2,Wed Jul 03 2019 23:27:25 GMT+0200 (CEST),1562189245125,5.593,rating_scale_object,13
397,,1707,20,,Graduated High School,1562189580705,70,female,German ,NA,NA,NA,Very hard,Very easy,images/4.jpg,4,<br /> <br />   <br /> <br /> How well can you detect objects in the painting?,1,Wed Jul 03 2019 23:27:25 GMT+0200 (CEST),1562189245125,5.593,rating_scale_object,14
397,,6422,20,,Graduated High School,1562189580705,70,female,German ,NA,NA,NA,Very hard,Very easy,images/17.jpg,17,<br /> <br />   <br /> <br /> How well can you detect objects in the painting?,1,Wed Jul 03 2019 23:27:25 GMT+0200 (CEST),1562189245125,5.593,rating_scale_object,15
397,,2285,20,,Graduated High School,1562189580705,70,female,German ,NA,NA,NA,Very hard,Very easy,images/9.jpg,9,<br /> <br />   <br /> <br /> How well can you detect objects in the painting?,1,Wed Jul 03 2019 23:27:25 GMT+0200 (CEST),1562189245125,5.593,rating_scale_object,16
397,,2541,20,,Graduated High School,1562189580705,70,female,German ,NA,NA,NA,Very hard,Very easy,images/27.jpg,27,<br /> <br />   <br /> <br /> How well can you detect objects in the painting?,7,Wed Jul 03 2019 23:27:25 GMT+0200 (CEST),1562189245125,5.593,rating_scale_object,17
397,,3958,20,,Graduated High School,1562189580705,70,female,German ,NA,NA,NA,Very hard,Very easy,images/23.jpg,23,<br /> <br />   <br /> <br /> How well can you detect objects in the painting?,5,Wed Jul 03 2019 23:27:25 GMT+0200 (CEST),1562189245125,5.593,rating_scale_object,18
397,,1362,20,,Graduated High School,1562189580705,70,female,German ,NA,NA,NA,Very hard,Very easy,images/13.jpg,13,<br /> <br />   <br /> <br /> How well can you detect objects in the painting?,1,Wed Jul 03 2019 23:27:25 GMT+0200 (CEST),1562189245125,5.593,rating_scale_object,19
397,,3393,20,,Graduated High School,1562189580705,70,female,German ,NA,NA,NA,Very hard,Very easy,images/1.jpg,1,<br /> <br />   <br /> <br /> How well can you detect objects in the painting?,1,Wed Jul 03 2019 23:27:25 GMT+0200 (CEST),1562189245125,5.593,rating_scale_object,20
397,,2040,20,,Graduated High School,1562189580705,70,female,German ,NA,NA,NA,Very hard,Very easy,images/30.jpg,30,<br /> <br />   <br /> <br /> How well can you detect objects in the painting?,2,Wed Jul 03 2019 23:27:25 GMT+0200 (CEST),1562189245125,5.593,rating_scale_object,21
397,,2471,20,,Graduated High School,1562189580705,70,female,German ,NA,NA,NA,Very hard,Very easy,images/20.jpg,20,<br /> <br />   <br /> <br /> How well can you detect objects in the painting?,2,Wed Jul 03 2019 23:27:25 GMT+0200 (CEST),1562189245125,5.593,rating_scale_object,22
397,,2263,20,,Graduated High School,1562189580705,70,female,German ,NA,NA,NA,Very hard,Very easy,images/7.jpg,7,<br /> <br />   <br /> <br /> How well can you detect objects in the painting?,4,Wed Jul 03 2019 23:27:25 GMT+0200 (CEST),1562189245125,5.593,rating_scale_object,23
397,,2240,20,,Graduated High School,1562189580705,70,female,German ,NA,NA,NA,Very hard,Very easy,images/18.jpg,18,<br /> <br />   <br /> <br /> How well can you detect objects in the painting?,2,Wed Jul 03 2019 23:27:25 GMT+0200 (CEST),1562189245125,5.593,rating_scale_object,24
397,,7972,20,,Graduated High School,1562189580705,70,female,German ,NA,NA,NA,Very hard,Very easy,images/8.jpg,8,<br /> <br />   <br /> <br /> How well can you detect objects in the painting?,2,Wed Jul 03 2019 23:27:25 GMT+0200 (CEST),1562189245125,5.593,rating_scale_object,25
397,,1555,20,,Graduated High School,1562189580705,70,female,German ,NA,NA,NA,Very hard,Very easy,images/10.jpg,10,<br /> <br />   <br /> <br /> How well can you detect objects in the painting?,1,Wed Jul 03 2019 23:27:25 GMT+0200 (CEST),1562189245125,5.593,rating_scale_object,26
397,,2323,20,,Graduated High School,1562189580705,70,female,German ,NA,NA,NA,Very hard,Very easy,images/22.jpg,22,<br /> <br />   <br /> <br /> How well can you detect objects in the painting?,2,Wed Jul 03 2019 23:27:25 GMT+0200 (CEST),1562189245125,5.593,rating_scale_object,27
397,,2845,20,,Graduated High School,1562189580705,70,female,German ,NA,NA,NA,Very hard,Very easy,images/15.jpg,15,<br /> <br />   <br /> <br /> How well can you detect objects in the painting?,2,Wed Jul 03 2019 23:27:25 GMT+0200 (CEST),1562189245125,5.593,rating_scale_object,28
397,,2624,20,,Graduated High School,1562189580705,70,female,German ,NA,NA,NA,Very hard,Very easy,images/21.jpg,21,<br /> <br />   <br /> <br /> How well can you detect objects in the painting?,5,Wed Jul 03 2019 23:27:25 GMT+0200 (CEST),1562189245125,5.593,rating_scale_object,29
397,,2767,20,,Graduated High School,1562189580705,70,female,German ,NA,NA,NA,Very hard,Very easy,images/24.jpg,24,<br /> <br />   <br /> <br /> How well can you detect objects in the painting?,5,Wed Jul 03 2019 23:27:25 GMT+0200 (CEST),1562189245125,5.593,rating_scale_object,30
397,,14171,20,,Graduated High School,1562189580705,70,female,German ,1,NA,NA,NA,NA,images/Visiontest.jpg,NA,<br /> <br /> <br /> <br /> Please fill in the box with the smallest letter combination that you can read.,JSE,Wed Jul 03 2019 23:27:25 GMT+0200 (CEST),1562189245125,5.593,vision_test,1
397,,17274,20,,Graduated High School,1562189580705,70,female,German ,1,NA,NA,NA,NA,images/Visiontest_2.jpg,NA,<br /> <br /> <br /> <br /> Please fill in the box with the letter combination that is accentuated.,JSE,Wed Jul 03 2019 23:27:25 GMT+0200 (CEST),1562189245125,5.593,vision_test_2,1
397,,16338,20,,Graduated High School,1562189580705,70,female,German ,1,NA,NA,NA,NA,images/ishihara.png,NA,Which number do you see in the picture?,74,Wed Jul 03 2019 23:27:25 GMT+0200 (CEST),1562189245125,5.593,ishihara,1
397,,9903,20,,Graduated High School,1562189580705,70,female,German ,NA,NA,NA,not at all,absolutely,NA,NA,"The paintings you just saw are artworks by Picasso, Braque and Gris. They are part of the art style cubism. <br /> <br /> Are you an expert in cubism?",1,Wed Jul 03 2019 23:27:25 GMT+0200 (CEST),1562189245125,5.593,expert,1
394,,13443,21,,Graduated College,1562189071572,70,female,German,NA,yes,absolutely yes,NA,NA,images/Hand.png,NA,"It is important that you complete the experiment on your computer and not on your smartphone. <br /> <br /> For the experiment you have to be seated with a distance of 55 cm in front of your computer desktop. Because this is approximately one armlength, you can put your hand on the sketch to adjust your seating position. <br /> <br /> Are you ready?",yes,Wed Jul 03 2019 23:19:02 GMT+0200 (Central European Summer Time),1562188742394,5.4863,desktop_distance,1
394,,7660,21,,Graduated College,1562189071572,70,female,German,NA,NA,NA,Not at all,Very much,images/20.jpg,20,  <br /> <br />   <br /> <br /> How much do you like the painting?,3,Wed Jul 03 2019 23:19:02 GMT+0200 (Central European Summer Time),1562188742394,5.4863,rating_scale_like,1
394,,2404,21,,Graduated College,1562189071572,70,female,German,NA,NA,NA,Not at all,Very much,images/30.jpg,30,  <br /> <br />   <br /> <br /> How much do you like the painting?,6,Wed Jul 03 2019 23:19:02 GMT+0200 (Central European Summer Time),1562188742394,5.4863,rating_scale_like,2
394,,2438,21,,Graduated College,1562189071572,70,female,German,NA,NA,NA,Not at all,Very much,images/29.jpg,29,  <br /> <br />   <br /> <br /> How much do you like the painting?,6,Wed Jul 03 2019 23:19:02 GMT+0200 (Central European Summer Time),1562188742394,5.4863,rating_scale_like,3
394,,2675,21,,Graduated College,1562189071572,70,female,German,NA,NA,NA,Not at all,Very much,images/16.jpg,16,  <br /> <br />   <br /> <br /> How much do you like the painting?,6,Wed Jul 03 2019 23:19:02 GMT+0200 (Central European Summer Time),1562188742394,5.4863,rating_scale_like,4
394,,2149,21,,Graduated College,1562189071572,70,female,German,NA,NA,NA,Not at all,Very much,images/7.jpg,7,  <br /> <br />   <br /> <br /> How much do you like the painting?,6,Wed Jul 03 2019 23:19:02 GMT+0200 (Central European Summer Time),1562188742394,5.4863,rating_scale_like,5
394,,3887,21,,Graduated College,1562189071572,70,female,German,NA,NA,NA,Not at all,Very much,images/11.jpg,11,  <br /> <br />   <br /> <br /> How much do you like the painting?,5,Wed Jul 03 2019 23:19:02 GMT+0200 (Central European Summer Time),1562188742394,5.4863,rating_scale_like,6
394,,2174,21,,Graduated College,1562189071572,70,female,German,NA,NA,NA,Not at all,Very much,images/19.jpg,19,  <br /> <br />   <br /> <br /> How much do you like the painting?,3,Wed Jul 03 2019 23:19:02 GMT+0200 (Central European Summer Time),1562188742394,5.4863,rating_scale_like,7
394,,4474,21,,Graduated College,1562189071572,70,female,German,NA,NA,NA,Not at all,Very much,images/27.jpg,27,  <br /> <br />   <br /> <br /> How much do you like the painting?,6,Wed Jul 03 2019 23:19:02 GMT+0200 (Central European Summer Time),1562188742394,5.4863,rating_scale_like,8
394,,4060,21,,Graduated College,1562189071572,70,female,German,NA,NA,NA,Not at all,Very much,images/6.jpg,6,  <br /> <br />   <br /> <br /> How much do you like the painting?,6,Wed Jul 03 2019 23:19:02 GMT+0200 (Central European Summer Time),1562188742394,5.4863,rating_scale_like,9
394,,2005,21,,Graduated College,1562189071572,70,female,German,NA,NA,NA,Not at all,Very much,images/21.jpg,21,  <br /> <br />   <br /> <br /> How much do you like the painting?,4,Wed Jul 03 2019 23:19:02 GMT+0200 (Central European Summer Time),1562188742394,5.4863,rating_scale_like,10
394,,1987,21,,Graduated College,1562189071572,70,female,German,NA,NA,NA,Not at all,Very much,images/14.jpg,14,  <br /> <br />   <br /> <br /> How much do you like the painting?,5,Wed Jul 03 2019 23:19:02 GMT+0200 (Central European Summer Time),1562188742394,5.4863,rating_scale_like,11
394,,2147,21,,Graduated College,1562189071572,70,female,German,NA,NA,NA,Not at all,Very much,images/9.jpg,9,  <br /> <br />   <br /> <br /> How much do you like the painting?,3,Wed Jul 03 2019 23:19:02 GMT+0200 (Central European Summer Time),1562188742394,5.4863,rating_scale_like,12
394,,3662,21,,Graduated College,1562189071572,70,female,German,NA,NA,NA,Not at all,Very much,images/3.jpg,3,  <br /> <br />   <br /> <br /> How much do you like the painting?,3,Wed Jul 03 2019 23:19:02 GMT+0200 (Central European Summer Time),1562188742394,5.4863,rating_scale_like,13
394,,3635,21,,Graduated College,1562189071572,70,female,German,NA,NA,NA,Not at all,Very much,images/8.jpg,8,  <br /> <br />   <br /> <br /> How much do you like the painting?,3,Wed Jul 03 2019 23:19:02 GMT+0200 (Central European Summer Time),1562188742394,5.4863,rating_scale_like,14
394,,2717,21,,Graduated College,1562189071572,70,female,German,NA,NA,NA,Not at all,Very much,images/23.jpg,23,  <br /> <br />   <br /> <br /> How much do you like the painting?,4,Wed Jul 03 2019 23:19:02 GMT+0200 (Central European Summer Time),1562188742394,5.4863,rating_scale_like,15
394,,1762,21,,Graduated College,1562189071572,70,female,German,NA,NA,NA,Not at all,Very much,images/15.jpg,15,  <br /> <br />   <br /> <br /> How much do you like the painting?,3,Wed Jul 03 2019 23:19:02 GMT+0200 (Central European Summer Time),1562188742394,5.4863,rating_scale_like,16
394,,2435,21,,Graduated College,1562189071572,70,female,German,NA,NA,NA,Not at all,Very much,images/28.jpg,28,  <br /> <br />   <br /> <br /> How much do you like the painting?,4,Wed Jul 03 2019 23:19:02 GMT+0200 (Central European Summer Time),1562188742394,5.4863,rating_scale_like,17
394,,3581,21,,Graduated College,1562189071572,70,female,German,NA,NA,NA,Not at all,Very much,images/2.jpg,2,  <br /> <br />   <br /> <br /> How much do you like the painting?,3,Wed Jul 03 2019 23:19:02 GMT+0200 (Central European Summer Time),1562188742394,5.4863,rating_scale_like,18
394,,2629,21,,Graduated College,1562189071572,70,female,German,NA,NA,NA,Not at all,Very much,images/1.jpg,1,  <br /> <br />   <br /> <br /> How much do you like the painting?,5,Wed Jul 03 2019 23:19:02 GMT+0200 (Central European Summer Time),1562188742394,5.4863,rating_scale_like,19
394,,6314,21,,Graduated College,1562189071572,70,female,German,NA,NA,NA,Not at all,Very much,images/5.jpg,5,  <br /> <br />   <br /> <br /> How much do you like the painting?,4,Wed Jul 03 2019 23:19:02 GMT+0200 (Central European Summer Time),1562188742394,5.4863,rating_scale_like,20
394,,1919,21,,Graduated College,1562189071572,70,female,German,NA,NA,NA,Not at all,Very much,images/10.jpg,10,  <br /> <br />   <br /> <br /> How much do you like the painting?,3,Wed Jul 03 2019 23:19:02 GMT+0200 (Central European Summer Time),1562188742394,5.4863,rating_scale_like,21
394,,1687,21,,Graduated College,1562189071572,70,female,German,NA,NA,NA,Not at all,Very much,images/25.jpg,25,  <br /> <br />   <br /> <br /> How much do you like the painting?,6,Wed Jul 03 2019 23:19:02 GMT+0200 (Central European Summer Time),1562188742394,5.4863,rating_scale_like,22
394,,2340,21,,Graduated College,1562189071572,70,female,German,NA,NA,NA,Not at all,Very much,images/18.jpg,18,  <br /> <br />   <br /> <br /> How much do you like the painting?,5,Wed Jul 03 2019 23:19:02 GMT+0200 (Central European Summer Time),1562188742394,5.4863,rating_scale_like,23
394,,1681,21,,Graduated College,1562189071572,70,female,German,NA,NA,NA,Not at all,Very much,images/12.jpg,12,  <br /> <br />   <br /> <br /> How much do you like the painting?,6,Wed Jul 03 2019 23:19:02 GMT+0200 (Central European Summer Time),1562188742394,5.4863,rating_scale_like,24
394,,1811,21,,Graduated College,1562189071572,70,female,German,NA,NA,NA,Not at all,Very much,images/22.jpg,22,  <br /> <br />   <br /> <br /> How much do you like the painting?,6,Wed Jul 03 2019 23:19:02 GMT+0200 (Central European Summer Time),1562188742394,5.4863,rating_scale_like,25
394,,4867,21,,Graduated College,1562189071572,70,female,German,NA,NA,NA,Not at all,Very much,images/26.jpg,26,  <br /> <br />   <br /> <br /> How much do you like the painting?,4,Wed Jul 03 2019 23:19:02 GMT+0200 (Central European Summer Time),1562188742394,5.4863,rating_scale_like,26
394,,5012,21,,Graduated College,1562189071572,70,female,German,NA,NA,NA,Not at all,Very much,images/24.jpg,24,  <br /> <br />   <br /> <br /> How much do you like the painting?,5,Wed Jul 03 2019 23:19:02 GMT+0200 (Central European Summer Time),1562188742394,5.4863,rating_scale_like,27
394,,2186,21,,Graduated College,1562189071572,70,female,German,NA,NA,NA,Not at all,Very much,images/13.jpg,13,  <br /> <br />   <br /> <br /> How much do you like the painting?,3,Wed Jul 03 2019 23:19:02 GMT+0200 (Central European Summer Time),1562188742394,5.4863,rating_scale_like,28
394,,1969,21,,Graduated College,1562189071572,70,female,German,NA,NA,NA,Not at all,Very much,images/4.jpg,4,  <br /> <br />   <br /> <br /> How much do you like the painting?,3,Wed Jul 03 2019 23:19:02 GMT+0200 (Central European Summer Time),1562188742394,5.4863,rating_scale_like,29
394,,2487,21,,Graduated College,1562189071572,70,female,German,NA,NA,NA,Not at all,Very much,images/17.jpg,17,  <br /> <br />   <br /> <br /> How much do you like the painting?,4,Wed Jul 03 2019 23:19:02 GMT+0200 (Central European Summer Time),1562188742394,5.4863,rating_scale_like,30
394,,9312,21,,Graduated College,1562189071572,70,female,German,NA,NA,NA,Very hard,Very easy,images/4.jpg,4,<br /> <br />   <br /> <br /> How well can you detect objects in the painting?,1,Wed Jul 03 2019 23:19:02 GMT+0200 (Central European Summer Time),1562188742394,5.4863,rating_scale_object,1
394,,2199,21,,Graduated College,1562189071572,70,female,German,NA,NA,NA,Very hard,Very easy,images/26.jpg,26,<br /> <br />   <br /> <br /> How well can you detect objects in the painting?,6,Wed Jul 03 2019 23:19:02 GMT+0200 (Central European Summer Time),1562188742394,5.4863,rating_scale_object,2
394,,6060,21,,Graduated College,1562189071572,70,female,German,NA,NA,NA,Very hard,Very easy,images/29.jpg,29,<br /> <br />   <br /> <br /> How well can you detect objects in the painting?,4,Wed Jul 03 2019 23:19:02 GMT+0200 (Central European Summer Time),1562188742394,5.4863,rating_scale_object,3
394,,4106,21,,Graduated College,1562189071572,70,female,German,NA,NA,NA,Very hard,Very easy,images/21.jpg,21,<br /> <br />   <br /> <br /> How well can you detect objects in the painting?,3,Wed Jul 03 2019 23:19:02 GMT+0200 (Central European Summer Time),1562188742394,5.4863,rating_scale_object,4
394,,4566,21,,Graduated College,1562189071572,70,female,German,NA,NA,NA,Very hard,Very easy,images/14.jpg,14,<br /> <br />   <br /> <br /> How well can you detect objects in the painting?,1,Wed Jul 03 2019 23:19:02 GMT+0200 (Central European Summer Time),1562188742394,5.4863,rating_scale_object,5
394,,2682,21,,Graduated College,1562189071572,70,female,German,NA,NA,NA,Very hard,Very easy,images/13.jpg,13,<br /> <br />   <br /> <br /> How well can you detect objects in the painting?,1,Wed Jul 03 2019 23:19:02 GMT+0200 (Central European Summer Time),1562188742394,5.4863,rating_scale_object,6
394,,6397,21,,Graduated College,1562189071572,70,female,German,NA,NA,NA,Very hard,Very easy,images/10.jpg,10,<br /> <br />   <br /> <br /> How well can you detect objects in the painting?,3,Wed Jul 03 2019 23:19:02 GMT+0200 (Central European Summer Time),1562188742394,5.4863,rating_scale_object,7
394,,1872,21,,Graduated College,1562189071572,70,female,German,NA,NA,NA,Very hard,Very easy,images/6.jpg,6,<br /> <br />   <br /> <br /> How well can you detect objects in the painting?,3,Wed Jul 03 2019 23:19:02 GMT+0200 (Central European Summer Time),1562188742394,5.4863,rating_scale_object,8
394,,2467,21,,Graduated College,1562189071572,70,female,German,NA,NA,NA,Very hard,Very easy,images/3.jpg,3,<br /> <br />   <br /> <br /> How well can you detect objects in the painting?,2,Wed Jul 03 2019 23:19:02 GMT+0200 (Central European Summer Time),1562188742394,5.4863,rating_scale_object,9
394,,3454,21,,Graduated College,1562189071572,70,female,German,NA,NA,NA,Very hard,Very easy,images/16.jpg,16,<br /> <br />   <br /> <br /> How well can you detect objects in the painting?,2,Wed Jul 03 2019 23:19:02 GMT+0200 (Central European Summer Time),1562188742394,5.4863,rating_scale_object,10
394,,3427,21,,Graduated College,1562189071572,70,female,German,NA,NA,NA,Very hard,Very easy,images/15.jpg,15,<br /> <br />   <br /> <br /> How well can you detect objects in the painting?,2,Wed Jul 03 2019 23:19:02 GMT+0200 (Central European Summer Time),1562188742394,5.4863,rating_scale_object,11
394,,2556,21,,Graduated College,1562189071572,70,female,German,NA,NA,NA,Very hard,Very easy,images/18.jpg,18,<br /> <br />   <br /> <br /> How well can you detect objects in the painting?,2,Wed Jul 03 2019 23:19:02 GMT+0200 (Central European Summer Time),1562188742394,5.4863,rating_scale_object,12
394,,2750,21,,Graduated College,1562189071572,70,female,German,NA,NA,NA,Very hard,Very easy,images/17.jpg,17,<br /> <br />   <br /> <br /> How well can you detect objects in the painting?,2,Wed Jul 03 2019 23:19:02 GMT+0200 (Central European Summer Time),1562188742394,5.4863,rating_scale_object,13
394,,2758,21,,Graduated College,1562189071572,70,female,German,NA,NA,NA,Very hard,Very easy,images/23.jpg,23,<br /> <br />   <br /> <br /> How well can you detect objects in the painting?,4,Wed Jul 03 2019 23:19:02 GMT+0200 (Central European Summer Time),1562188742394,5.4863,rating_scale_object,14
394,,3627,21,,Graduated College,1562189071572,70,female,German,NA,NA,NA,Very hard,Very easy,images/7.jpg,7,<br /> <br />   <br /> <br /> How well can you detect objects in the painting?,5,Wed Jul 03 2019 23:19:02 GMT+0200 (Central European Summer Time),1562188742394,5.4863,rating_scale_object,15
394,,4281,21,,Graduated College,1562189071572,70,female,German,NA,NA,NA,Very hard,Very easy,images/22.jpg,22,<br /> <br />   <br /> <br /> How well can you detect objects in the painting?,3,Wed Jul 03 2019 23:19:02 GMT+0200 (Central European Summer Time),1562188742394,5.4863,rating_scale_object,16
394,,2336,21,,Graduated College,1562189071572,70,female,German,NA,NA,NA,Very hard,Very easy,images/9.jpg,9,<br /> <br />   <br /> <br /> How well can you detect objects in the painting?,2,Wed Jul 03 2019 23:19:02 GMT+0200 (Central European Summer Time),1562188742394,5.4863,rating_scale_object,17
394,,1674,21,,Graduated College,1562189071572,70,female,German,NA,NA,NA,Very hard,Very easy,images/20.jpg,20,<br /> <br />   <br /> <br /> How well can you detect objects in the painting?,1,Wed Jul 03 2019 23:19:02 GMT+0200 (Central European Summer Time),1562188742394,5.4863,rating_scale_object,18
394,,3680,21,,Graduated College,1562189071572,70,female,German,NA,NA,NA,Very hard,Very easy,images/28.jpg,28,<br /> <br />   <br /> <br /> How well can you detect objects in the painting?,6,Wed Jul 03 2019 23:19:02 GMT+0200 (Central European Summer Time),1562188742394,5.4863,rating_scale_object,19
394,,1543,21,,Graduated College,1562189071572,70,female,German,NA,NA,NA,Very hard,Very easy,images/1.jpg,1,<br /> <br />   <br /> <br /> How well can you detect objects in the painting?,1,Wed Jul 03 2019 23:19:02 GMT+0200 (Central European Summer Time),1562188742394,5.4863,rating_scale_object,20
394,,4204,21,,Graduated College,1562189071572,70,female,German,NA,NA,NA,Very hard,Very easy,images/25.jpg,25,<br /> <br />   <br /> <br /> How well can you detect objects in the painting?,5,Wed Jul 03 2019 23:19:02 GMT+0200 (Central European Summer Time),1562188742394,5.4863,rating_scale_object,21
394,,3844,21,,Graduated College,1562189071572,70,female,German,NA,NA,NA,Very hard,Very easy,images/24.jpg,24,<br /> <br />   <br /> <br /> How well can you detect objects in the painting?,6,Wed Jul 03 2019 23:19:02 GMT+0200 (Central European Summer Time),1562188742394,5.4863,rating_scale_object,22
394,,1529,21,,Graduated College,1562189071572,70,female,German,NA,NA,NA,Very hard,Very easy,images/19.jpg,19,<br /> <br />   <br /> <br /> How well can you detect objects in the painting?,2,Wed Jul 03 2019 23:19:02 GMT+0200 (Central European Summer Time),1562188742394,5.4863,rating_scale_object,23
394,,2308,21,,Graduated College,1562189071572,70,female,German,NA,NA,NA,Very hard,Very easy,images/27.jpg,27,<br /> <br />   <br /> <br /> How well can you detect objects in the painting?,6,Wed Jul 03 2019 23:19:02 GMT+0200 (Central European Summer Time),1562188742394,5.4863,rating_scale_object,24
394,,1648,21,,Graduated College,1562189071572,70,female,German,NA,NA,NA,Very hard,Very easy,images/11.jpg,11,<br /> <br />   <br /> <br /> How well can you detect objects in the painting?,1,Wed Jul 03 2019 23:19:02 GMT+0200 (Central European Summer Time),1562188742394,5.4863,rating_scale_object,25
394,,3326,21,,Graduated College,1562189071572,70,female,German,NA,NA,NA,Very hard,Very easy,images/2.jpg,2,<br /> <br />   <br /> <br /> How well can you detect objects in the painting?,1,Wed Jul 03 2019 23:19:02 GMT+0200 (Central European Summer Time),1562188742394,5.4863,rating_scale_object,26
394,,2703,21,,Graduated College,1562189071572,70,female,German,NA,NA,NA,Very hard,Very easy,images/12.jpg,12,<br /> <br />   <br /> <br /> How well can you detect objects in the painting?,1,Wed Jul 03 2019 23:19:02 GMT+0200 (Central European Summer Time),1562188742394,5.4863,rating_scale_object,27
394,,3757,21,,Graduated College,1562189071572,70,female,German,NA,NA,NA,Very hard,Very easy,images/5.jpg,5,<br /> <br />   <br /> <br /> How well can you detect objects in the painting?,2,Wed Jul 03 2019 23:19:02 GMT+0200 (Central European Summer Time),1562188742394,5.4863,rating_scale_object,28
394,,2243,21,,Graduated College,1562189071572,70,female,German,NA,NA,NA,Very hard,Very easy,images/30.jpg,30,<br /> <br />   <br /> <br /> How well can you detect objects in the painting?,1,Wed Jul 03 2019 23:19:02 GMT+0200 (Central European Summer Time),1562188742394,5.4863,rating_scale_object,29
394,,3971,21,,Graduated College,1562189071572,70,female,German,NA,NA,NA,Very hard,Very easy,images/8.jpg,8,<br /> <br />   <br /> <br /> How well can you detect objects in the painting?,1,Wed Jul 03 2019 23:19:02 GMT+0200 (Central European Summer Time),1562188742394,5.4863,rating_scale_object,30
394,,11090,21,,Graduated College,1562189071572,70,female,German,1,NA,NA,NA,NA,images/Visiontest.jpg,NA,<br /> <br /> <br /> <br /> Please fill in the box with the smallest letter combination that you can read.,JSE,Wed Jul 03 2019 23:19:02 GMT+0200 (Central European Summer Time),1562188742394,5.4863,vision_test,1
394,,12175,21,,Graduated College,1562189071572,70,female,German,1,NA,NA,NA,NA,images/Visiontest_2.jpg,NA,<br /> <br /> <br /> <br /> Please fill in the box with the letter combination that is accentuated.,JSE,Wed Jul 03 2019 23:19:02 GMT+0200 (Central European Summer Time),1562188742394,5.4863,vision_test_2,1
394,,13226,21,,Graduated College,1562189071572,70,female,German,1,NA,NA,NA,NA,images/ishihara.png,NA,Which number do you see in the picture?,74,Wed Jul 03 2019 23:19:02 GMT+0200 (Central European Summer Time),1562188742394,5.4863,ishihara,1
394,,11690,21,,Graduated College,1562189071572,70,female,German,NA,NA,NA,not at all,absolutely,NA,NA,"The paintings you just saw are artworks by Picasso, Braque and Gris. They are part of the art style cubism. <br /> <br /> Are you an expert in cubism?",3,Wed Jul 03 2019 23:19:02 GMT+0200 (Central European Summer Time),1562188742394,5.4863,expert,1
392,,37196,26,,Graduated College,1562188827322,70,male,German,NA,yes,absolutely yes,NA,NA,images/Hand.png,NA,"It is important that you complete the experiment on your computer and not on your smartphone. <br /> <br /> For the experiment you have to be seated with a distance of 55 cm in front of your computer desktop. Because this is approximately one armlength, you can put your hand on the sketch to adjust your seating position. <br /> <br /> Are you ready?",absolutely,Wed Jul 03 2019 23:10:34 GMT+0200 (CEST),1562188234927,9.87325,desktop_distance,1
392,,15030,26,,Graduated College,1562188827322,70,male,German,NA,NA,NA,Not at all,Very much,images/1.jpg,1,  <br /> <br />   <br /> <br /> How much do you like the painting?,4,Wed Jul 03 2019 23:10:34 GMT+0200 (CEST),1562188234927,9.87325,rating_scale_like,1
392,,11842,26,,Graduated College,1562188827322,70,male,German,NA,NA,NA,Not at all,Very much,images/3.jpg,3,  <br /> <br />   <br /> <br /> How much do you like the painting?,1,Wed Jul 03 2019 23:10:34 GMT+0200 (CEST),1562188234927,9.87325,rating_scale_like,2
392,,10372,26,,Graduated College,1562188827322,70,male,German,NA,NA,NA,Not at all,Very much,images/27.jpg,27,  <br /> <br />   <br /> <br /> How much do you like the painting?,6,Wed Jul 03 2019 23:10:34 GMT+0200 (CEST),1562188234927,9.87325,rating_scale_like,3
392,,3808,26,,Graduated College,1562188827322,70,male,German,NA,NA,NA,Not at all,Very much,images/20.jpg,20,  <br /> <br />   <br /> <br /> How much do you like the painting?,1,Wed Jul 03 2019 23:10:34 GMT+0200 (CEST),1562188234927,9.87325,rating_scale_like,4
392,,4299,26,,Graduated College,1562188827322,70,male,German,NA,NA,NA,Not at all,Very much,images/24.jpg,24,  <br /> <br />   <br /> <br /> How much do you like the painting?,5,Wed Jul 03 2019 23:10:34 GMT+0200 (CEST),1562188234927,9.87325,rating_scale_like,5
392,,4006,26,,Graduated College,1562188827322,70,male,German,NA,NA,NA,Not at all,Very much,images/5.jpg,5,  <br /> <br />   <br /> <br /> How much do you like the painting?,2,Wed Jul 03 2019 23:10:34 GMT+0200 (CEST),1562188234927,9.87325,rating_scale_like,6
392,,23323,26,,Graduated College,1562188827322,70,male,German,NA,NA,NA,Not at all,Very much,images/29.jpg,29,  <br /> <br />   <br /> <br /> How much do you like the painting?,2,Wed Jul 03 2019 23:10:34 GMT+0200 (CEST),1562188234927,9.87325,rating_scale_like,7
392,,7458,26,,Graduated College,1562188827322,70,male,German,NA,NA,NA,Not at all,Very much,images/16.jpg,16,  <br /> <br />   <br /> <br /> How much do you like the painting?,1,Wed Jul 03 2019 23:10:34 GMT+0200 (CEST),1562188234927,9.87325,rating_scale_like,8
392,,1697,26,,Graduated College,1562188827322,70,male,German,NA,NA,NA,Not at all,Very much,images/18.jpg,18,  <br /> <br />   <br /> <br /> How much do you like the painting?,1,Wed Jul 03 2019 23:10:34 GMT+0200 (CEST),1562188234927,9.87325,rating_scale_like,9
